
trial	choice1	rts1	stim1ons_sl	stim1ons_ms	choice1ons_sl	choice1ons_ms	state	choice2	rts2	stim2ons_sl	stim2ons_ms	choice2ons_sl	choice2ons_ms	SC_ID	gender	DOB	age	won

1	1	2.302094	367.136200	367.130915	2681.418228	2681.411364	2	1	1.983760	3692.235442	3692.217891	5696.302626	5696.298494	00121	f	1948-07	70.857991	0
2	1	0.818172	8231.499458	8231.491128	9064.932454	9064.922340	3	2	1.195443	10069.421114	10069.405716	11275.197576	11275.194224	00121	f	1948-07	70.857991	1
3	1	0.940889	13797.167124	13797.152481	14754.071216	14754.067821	2	2	0.995241	15755.185313	15755.181624	16758.416380	16758.411935	00121	f	1948-07	70.857991	0
4	1	0.797877	19264.516547	19264.482497	20078.971620	20078.965654	3	2	0.855473	21082.618756	21082.609667	21952.524305	21952.520554	00121	f	1948-07	70.857991	1
5	1	2.220143	24465.023010	24465.012465	26701.357180	26701.351059	2	1	2.643787	27704.198767	27704.189311	30357.979677	30357.975810	00121	f	1948-07	70.857991	1
6	1	0.981040	32864.651099	32864.634904	33862.710169	33862.703538	2	1	1.497759	34863.941252	34863.937859	36379.404064	36379.396107	00121	f	1948-07	70.857991	0
7	1	0.589003	38898.938129	38898.924892	39503.893056	39503.889427	2	1	1.304079	40505.723205	40505.718563	41819.240826	41819.231895	00121	f	1948-07	70.857991	0
8	1	0.571705	44337.565539	44337.526156	44920.397656	44920.390671	2	2	2.039955	45923.060557	45923.056277	47972.078813	47972.074651	00121	f	1948-07	70.857991	1
9	1	1.270065	50483.342755	50483.329964	51769.086157	51769.082772	2	2	1.236180	52772.215665	52772.209515	54019.205615	54019.201942	00121	f	1948-07	70.857991	0
10	2	1.804615	56534.131891	56534.108781	58354.156912	58354.153507	3	1	1.855207	59355.719441	59355.711674	61222.105499	61222.099703	00121	f	1948-07	70.857991	0
11	2	0.087415	63733.433388	63733.405994	63837.895667	63837.889252	3	2	1.272250	64839.642854	64839.635884	66122.335708	66122.331736	00121	f	1948-07	70.857991	1
12	2	0.752763	68634.573119	68634.559579	69402.989535	69402.986425	3	2	0.929096	70405.323552	70405.310998	71346.871422	71346.867890	00121	f	1948-07	70.857991	0
13	2	0.767173	73849.832589	73849.825825	74636.144478	74636.136701	3	2	1.319783	75638.809323	75638.797080	76971.214775	76971.208225	00121	f	1948-07	70.857991	0
14	2	0.783272	79485.558790	79485.540440	80284.864221	80284.858126	2	1	1.183089	81287.238174	81287.231298	82485.282237	82485.276540	00121	f	1948-07	70.857991	1
15	2	1.029704	85003.133427	85003.118670	86047.772104	86047.767143	2	1	0.942565	87048.541999	87048.536099	87994.411047	87994.406181	00121	f	1948-07	70.857991	0
16	2	1.291202	90502.867993	90502.846147	91809.841301	91809.836948	3	2	1.157697	92811.525389	92811.522005	93976.676059	93976.670730	00121	f	1948-07	70.857991	0
17	2	0.920612	96486.038665	96486.002428	97423.762431	97423.758140	3	1	0.636246	98439.214805	98439.189860	99088.613137	99088.609689	00121	f	1948-07	70.857991	1
18	2	0.942865	101602.836085	101602.788082	102562.108610	102562.103565	2	2	1.786845	103563.135161	103563.131526	105356.441629	105356.433408	00121	f	1948-07	70.857991	1
19	2	1.056085	107870.580450	107870.553361	108942.808534	108942.797251	2	2	0.943458	109944.477482	109944.472792	110896.892550	110896.889140	00121	f	1948-07	70.857991	1
20	2	1.234821	113404.210241	113404.194949	114655.408147	114655.401285	3	1	1.302136	115657.860697	115657.848496	116972.584467	116972.553495	00121	f	1948-07	70.857991	0
21	2	0.876885	119486.667937	119486.657456	120380.564542	120380.556329	3	2	1.147941	121381.932866	121381.926543	122535.313232	122535.310117	00121	f	1948-07	70.857991	0
22	2	0.779223	125054.085661	125054.071772	125850.968575	125850.961843	3	2	0.879586	126851.875220	126851.870339	127751.113613	127751.108046	00121	f	1948-07	70.857991	0
23	1	0.947985	130253.658106	130253.653936	131219.598420	131219.592299	2	1	1.198273	132223.621125	132223.609572	133436.639379	133436.634646	00121	f	1948-07	70.857991	1
24	1	1.260089	135955.194761	135955.177770	137232.266131	137232.260656	2	1	1.168683	138233.301345	138233.295866	139407.819299	139407.811986	00121	f	1948-07	70.857991	1
25	1	0.815019	141922.388165	141922.381561	142754.228384	142754.222852	2	1	0.788276	143757.855047	143757.840491	144560.282844	144560.277004	00121	f	1948-07	70.857991	1
26	1	0.776578	147073.489146	147073.478442	147865.595113	147865.591447	3	2	1.497647	148875.803001	148875.790603	150386.718178	150386.712898	00121	f	1948-07	70.857991	1
27	1	1.654867	152907.017361	152907.000654	154578.242772	154578.239061	2	1	1.266540	155580.712018	155580.706079	156856.390825	156856.387560	00121	f	1948-07	70.857991	0
28	1	1.051865	159373.702715	159373.678482	160441.831872	160441.828281	3	2	0.930805	161445.731077	161445.713699	162387.437306	162387.433705	00121	f	1948-07	70.857991	0
29	2	0.687700	164907.404770	164907.368878	165611.691513	165611.683106	2	2	2.009127	166614.176357	166614.166279	168633.079351	168633.073717	00121	f	1948-07	70.857991	0
30	2	0.870006	171140.824248	171140.786673	172027.779510	172027.773084	3	1	0.965210	173029.147267	173029.142328	174006.127072	174006.122278	00121	f	1948-07	70.857991	0
31	2	0.544330	176524.166718	176524.150128	177085.965401	177085.958487	3	2	0.733689	178094.251331	178094.238937	178843.179366	178843.173328	00121	f	1948-07	70.857991	1
32	2	0.858282	181357.846034	181357.826762	182233.738959	182233.733732	3	2	0.885051	183243.480116	183243.466773	184143.568605	184143.562063	00121	f	1948-07	70.857991	0
33	2	0.791444	186658.933077	186658.883890	187468.460200	187468.452169	3	2	0.888712	188469.452964	188469.447587	189364.336330	189364.330650	00121	f	1948-07	70.857991	0
34	2	0.900805	191876.185408	191876.099928	192793.513377	192793.505072	3	1	1.288388	193796.389731	193796.385003	195098.346831	195098.341832	00121	f	1948-07	70.857991	1
35	2	1.170780	197609.154307	197609.133598	198797.679530	198797.672021	2	2	1.116476	199798.485754	199798.482019	200926.272255	200926.266500	00121	f	1948-07	70.857991	1
36	2	1.010799	203443.482802	203443.466715	204470.420395	204470.409228	3	2	2.011386	205471.377103	205471.373523	207488.045844	207488.042104	00121	f	1948-07	70.857991	0
37	2	0.438063	209993.620712	209993.615566	210448.131008	210448.127727	3	1	1.349440	211449.892430	211449.886529	212809.781788	212809.778028	00121	f	1948-07	70.857991	1
38	2	1.023770	215327.986052	215327.979409	216367.595089	216367.588725	3	1	1.923565	217370.318093	217370.306830	219300.877971	219300.871255	00121	f	1948-07	70.857991	1
39	2	0.988571	221810.814415	221810.700683	222816.190177	222816.186703	3	1	2.820864	223817.670278	223817.664810	226648.518212	226648.514759	00121	f	1948-07	70.857991	0
40	2	0.900089	229178.678832	229178.646446	230095.600935	230095.595206	3	1	2.308446	231097.715276	231097.708615	233420.440872	233420.435553	00121	f	1948-07	70.857991	1
41	2	1.949432	235928.390571	235928.367185	237895.298607	237895.293330	3	1	0.988393	238897.339066	238897.334426	239900.941418	239900.934999	00121	f	1948-07	70.857991	1
42	2	0.961236	242412.994356	242412.983894	243391.023166	243391.017001	3	1	1.446539	244391.981434	244391.975693	245842.453164	245842.446974	00121	f	1948-07	70.857991	0
43	2	0.888419	248345.905765	248345.891778	249251.755162	249251.749510	3	1	1.131774	250253.373429	250253.368622	251395.291092	251395.283313	00121	f	1948-07	70.857991	1
44	2	1.275915	253916.265150	253916.250306	255206.867701	255206.862763	2	2	1.595238	256207.750606	256207.745586	257808.928786	257808.924299	00121	f	1948-07	70.857991	0
45	2	0.169868	260330.268341	260330.229532	260517.323932	260517.318548	3	2	2.443999	261518.726987	261518.721896	263974.763191	263974.757039	00121	f	1948-07	70.857991	0
46	2	0.676512	266480.679901	266480.668391	267175.789700	267175.784824	3	1	1.148250	268176.620906	268176.617125	269329.057373	269329.052603	00121	f	1948-07	70.857991	0
47	1	1.545236	271848.076512	271848.037318	273409.629030	273409.624617	2	2	2.380410	274419.555574	274419.543294	276811.981446	276811.973032	00121	f	1948-07	70.857991	1
48	1	1.238467	279332.172879	279332.138044	280586.748159	280586.743175	3	1	1.557346	281587.545110	281587.540044	283155.846521	283155.842865	00121	f	1948-07	70.857991	0
49	1	0.823346	285665.275560	285665.258260	286505.391227	286505.383180	2	2	0.880798	287506.902751	287506.892387	288396.347146	288396.340528	00121	f	1948-07	70.857991	0
50	1	0.864640	290915.215032	290915.199705	291797.541291	291797.534367	3	2	0.818061	292802.615942	292802.578539	293634.394163	293634.381804	00121	f	1948-07	70.857991	1
51	1	1.347387	296149.018209	296148.950866	297513.959802	297513.951971	2	2	1.457747	298517.975424	298517.963106	299990.479089	299990.475356	00121	f	1948-07	70.857991	1
52	1	1.237139	302499.700306	302499.678834	303753.481673	303753.477056	3	2	0.872870	304755.512515	304755.507073	305639.433835	305639.428619	00121	f	1948-07	70.857991	1
53	1	1.161821	308166.884836	308166.860451	309345.644386	309345.639466	3	2	1.269733	310346.549586	310346.544001	311620.364601	311620.360972	00121	f	1948-07	70.857991	0
54	2	1.739147	314133.738949	314133.722626	315890.215521	315890.209947	2	2	1.382583	316903.602160	316903.594230	318300.145296	318300.139254	00121	f	1948-07	70.857991	1
55	2	0.952152	320817.536893	320817.516373	321786.969982	321786.965013	3	1	1.150459	322790.782983	322790.772993	323951.883976	323951.880284	00121	f	1948-07	70.857991	1
56	2	0.647851	326484.949253	326484.655095	327149.171577	327149.168243	3	1	1.182122	328154.908589	328154.899588	329350.345100	329350.341488	00121	f	1948-07	70.857991	1
57	2	0.981793	331868.275300	331868.243240	332867.330758	332867.324113	3	1	1.241945	333871.237324	333871.230787	335128.293049	335128.289682	00121	f	1948-07	70.857991	0
58	2	1.033967	337635.309569	337635.295514	338686.546718	338686.541266	2	2	0.825358	339689.436126	339689.418882	340528.043984	340528.040499	00121	f	1948-07	70.857991	1
59	2	0.902107	343036.222996	343036.183185	343954.666059	343954.662071	2	2	0.969025	344957.491397	344957.470430	345938.672301	345938.666542	00121	f	1948-07	70.857991	0
60	2	0.793588	348469.802826	348469.715244	349280.023697	349280.017771	3	1	1.617054	350280.934431	350280.928881	351903.299313	351903.295649	00121	f	1948-07	70.857991	0
61	2	0.784367	354419.847743	354419.830425	355221.692409	355221.688907	3	1	1.111994	356224.276162	356224.269737	357348.727970	357348.724294	00121	f	1948-07	70.857991	1
62	2	1.578543	359853.479011	359853.465193	361450.481491	361450.476109	3	1	1.018892	362451.390387	362451.384453	363489.464087	363489.460408	00121	f	1948-07	70.857991	1
63	2	0.866262	366022.165943	366022.149369	366904.432288	366904.426234	2	2	1.468456	367907.053789	367907.041966	369389.744106	369389.739024	00121	f	1948-07	70.857991	1
64	2	1.393073	371921.325802	371921.269115	373331.582260	373331.576275	3	1	1.128863	374332.424370	374332.420573	375467.073905	375467.070696	00121	f	1948-07	70.857991	0
65	1	1.091483	377971.949835	377971.934966	379080.299181	379080.295815	2	1	1.777343	380081.423880	380081.416408	381866.219172	381866.212671	00121	f	1948-07	70.857991	0
66	1	0.462943	384371.685656	384371.671660	384851.751484	384851.744596	2	2	1.350442	385852.550123	385852.546478	387223.345255	387223.339026	00121	f	1948-07	70.857991	1
67	1	1.491583	402808.607956	402808.600950	404315.123439	404315.118550	3	2	1.388778	405315.945594	405315.942142	406712.883447	406712.868014	00121	f	1948-07	70.857991	0
68	1	1.036504	409224.313199	409224.296637	410277.201624	410277.194872	2	1	0.959146	411279.320334	411279.316095	412252.418544	412252.413053	00121	f	1948-07	70.857991	1
69	1	1.037954	414757.973679	414757.967349	415811.939078	415811.935756	2	1	1.166996	416827.678619	416827.663625	418009.542453	418009.536047	00121	f	1948-07	70.857991	1
70	1	1.442688	420541.127461	420541.113931	422000.475291	422000.471904	2	1	1.124319	423001.362031	423001.358435	424132.318315	424132.312158	00121	f	1948-07	70.857991	1
71	1	0.999037	426641.492989	426641.469734	427657.440965	427657.435347	3	2	1.351499	428659.651723	428659.647363	430026.699513	430026.695802	00121	f	1948-07	70.857991	1
72	1	1.568527	432542.576567	432542.480523	434127.773796	434127.768786	3	2	1.188579	435143.987781	435143.979621	436347.565289	436347.560032	00121	f	1948-07	70.857991	0
73	1	1.733640	438859.000786	438858.979679	440609.852945	440609.846276	3	2	1.249830	441611.993988	441611.985003	442876.106781	442876.101120	00121	f	1948-07	70.857991	0
74	1	1.132068	445393.512899	445393.493147	446541.588084	446541.584564	2	1	0.903436	447544.601112	447544.590032	448463.248015	448463.243929	00121	f	1948-07	70.857991	1
75	1	1.175712	450976.410238	450976.394399	452170.889125	452170.883081	2	1	0.793557	453171.885462	453171.882077	453970.482825	453970.477918	00121	f	1948-07	70.857991	0
76	1	0.904975	456477.677040	456477.663352	457398.846064	457398.840313	2	1	1.082453	458413.184056	458413.173347	459510.200119	459510.196463	00121	f	1948-07	70.857991	1
77	1	0.919135	462028.528805	462028.520626	462963.290067	462963.286545	3	1	2.711512	463965.327193	463965.322366	466689.580830	466689.577019	00121	f	1948-07	70.857991	0
78	1	0.878378	469194.247651	469194.233064	470090.244164	470090.238443	2	1	1.015095	471091.263344	471091.259595	472110.538648	472110.532844	00121	f	1948-07	70.857991	1
79	1	0.833134	474628.536448	474628.503792	475478.678959	475478.670643	3	2	1.484276	476481.311912	476481.303531	477979.999695	477979.994333	00121	f	1948-07	70.857991	0
80	1	0.729415	480496.175924	480496.161164	481241.585811	481241.580734	2	1	1.862914	482242.588436	482242.583721	484125.638615	484125.631182	00121	f	1948-07	70.857991	0
81	1	0.939212	486628.124905	486628.121446	487585.967315	487585.958721	2	1	0.867988	488586.817020	488586.813584	489464.059900	489464.055638	00121	f	1948-07	70.857991	1
82	1	1.091452	491996.712590	491996.670178	493104.712966	493104.708057	2	1	0.948271	494105.585450	494105.581723	495061.478578	495061.471099	00121	f	1948-07	70.857991	0
83	1	0.881545	497579.804131	497579.785239	498478.372040	498478.366039	2	1	1.253541	499483.291258	499483.279258	500750.695817	500750.687376	00121	f	1948-07	70.857991	0
84	2	2.099370	503264.268051	503264.249859	505379.875810	505379.867302	3	0	0.000000	506382.966062	506382.959653	0.000000	0.000000	00121	f	1948-07	70.857991 
85	2	1.270890	510398.163891	510398.038042	511685.248045	511685.242100	3	2	1.040555	512686.536587	512686.507450	513738.078768	513738.074940	00121	f	1948-07	70.857991	0
86	2	0.820117	516247.827377	516247.816031	517084.542574	517084.537620	3	1	0.980557	518100.512330	518100.495436	519095.515986	519095.511906	00121	f	1948-07	70.857991	1
87	2	0.916228	521615.180345	521615.163073	522547.881430	522547.878157	2	2	1.182129	523551.150645	523551.141556	524747.263487	524747.257384	00121	f	1948-07	70.857991	1
88	2	1.210918	527265.996622	527265.990423	528493.230397	528493.224554	2	2	0.860617	529494.132651	529494.129246	530359.215081	530359.211718	00121	f	1948-07	70.857991	1
89	2	0.899511	532882.031745	532882.019994	533800.117551	533800.111288	3	1	1.597125	534802.554330	534802.542691	536413.482856	536413.477397	00121	f	1948-07	70.857991	1
90	2	1.027362	538932.496775	538932.477602	539977.171109	539977.165427	3	1	1.414747	540985.197630	540985.181530	542414.866361	542414.860045	00121	f	1948-07	70.857991	1
91	2	0.932710	544934.011927	544933.993593	545883.051892	545883.046214	3	1	1.208408	546885.359432	546885.350359	548108.576743	548108.573507	00121	f	1948-07	70.857991	1
92	2	0.971042	550616.570827	550616.553287	551604.555805	551604.551028	3	1	2.033794	552606.723895	552606.716603	554651.109531	554651.103247	00121	f	1948-07	70.857991	0
93	2	0.814198	557167.031895	557167.015650	557998.625907	557998.621980	3	2	1.796410	558999.626698	558999.621473	560814.102222	560814.098566	00121	f	1948-07	70.857991	0
94	2	0.689312	563316.743979	563316.739053	564023.632459	564023.627039	3	1	1.059000	565025.729256	565025.723063	566093.688583	566093.683772	00121	f	1948-07	70.857991	1
95	2	0.772836	568618.174614	568618.117118	569408.156058	569408.151360	3	1	1.075847	570409.907100	570409.903372	571494.156466	571494.152769	00121	f	1948-07	70.857991	0
96	2	0.948723	574002.086975	574002.055667	574967.518415	574967.514974	3	1	0.876848	575972.851923	575972.817374	576862.236858	576862.232617	00121	f	1948-07	70.857991	1
97	2	0.882930	579368.795940	579368.778435	580268.706275	580268.702613	3	1	1.133008	581271.625815	581271.616918	582419.147971	582419.144101	00121	f	1948-07	70.857991	1
98	2	0.830967	584936.806896	584936.787791	585784.141198	585784.132598	3	1	1.115145	586784.985466	586784.981990	587917.838791	587917.835460	00121	f	1948-07	70.857991	1
99	2	0.890423	590435.632767	590435.625974	591343.624817	591343.618773	3	1	0.971355	592344.611779	592344.606606	593328.528538	593328.516984	00121	f	1948-07	70.857991	1
100	2	0.819114	595836.332172	595836.316887	596672.539951	596672.534888	3	1	1.122738	597674.482977	597674.477932	598809.462326	598809.457066	00121	f	1948-07	70.857991	0
101	2	0.985112	601337.041269	601337.019939	602339.466264	602339.461191	3	1	1.140859	603356.626862	603356.612329	604511.611248	604511.603297	00121	f	1948-07	70.857991	0
102	2	0.463779	607020.481389	607020.466705	607501.387180	607501.379778	3	2	0.575138	608502.238906	608502.233458	609096.232290	609096.228831	00121	f	1948-07	70.857991	0
103	2	0.731731	611621.141581	611621.083626	612370.226297	612370.220812	2	2	0.978084	613373.994338	613373.981281	614366.371045	614366.367149	00121	f	1948-07	70.857991	1
104	2	0.971548	616871.180534	616871.164216	617860.934650	617860.907091	2	2	0.730233	618862.236951	618862.228261	619601.880523	619601.873188	00121	f	1948-07	70.857991	0
105	2	0.820336	622104.187141	622104.181373	622942.192976	622942.187141	3	1	2.066162	623943.733977	623943.727709	626021.680928	626021.677284	00121	f	1948-07	70.857991	1
106	2	0.964326	628555.626978	628555.569698	629536.590849	629536.585090	3	1	1.123674	630537.684520	630537.679245	631679.537761	631679.534272	00121	f	1948-07	70.857991	0
107	2	0.764003	634189.166135	634189.140416	634969.972455	634969.968801	3	1	1.098508	635970.951571	635970.945604	637088.523375	637088.518594	00121	f	1948-07	70.857991	1
108	2	0.953715	639606.383004	639606.369619	640577.034130	640577.030208	3	1	1.189145	641591.951015	641591.932685	642796.246945	642796.239782	00121	f	1948-07	70.857991	1
109	2	1.094513	645306.498428	645306.483231	646418.466023	646418.459042	3	1	1.152581	647426.231075	647426.212060	648592.807876	648592.804324	00121	f	1948-07	70.857991	1
110	2	1.011113	651107.666593	651107.647448	652135.950136	652135.943968	3	1	1.206747	653136.785095	653136.779922	654347.381061	654347.376446	00121	f	1948-07	70.857991	1
111	2	0.894306	656874.541284	656874.526939	657785.658934	657785.653280	2	2	1.268762	658793.538286	658793.522540	660076.784935	660076.781326	00121	f	1948-07	70.857991	1
112	2	1.050409	662591.190467	662591.175272	663658.959985	663658.952929	3	1	1.316406	664659.810498	664659.806939	665991.050188	665991.046331	00121	f	1948-07	70.857991	0
113	2	0.910297	668508.972446	668508.827198	669435.374860	669435.371641	3	1	1.136356	670436.985116	670436.973802	671578.256343	671578.252830	00121	f	1948-07	70.857991	0
114	2	0.904687	674092.286279	674092.263487	675013.788483	675013.782920	2	2	0.902640	676016.428950	676016.421919	676928.298216	676928.293604	00121	f	1948-07	70.857991	0
115	2	0.757582	679443.330612	679443.303997	680216.650737	680216.646778	3	1	1.275069	681219.483962	681219.477602	682501.260812	682501.256494	00121	f	1948-07	70.857991	0
116	1	1.003593	685008.936163	685008.925351	686029.677318	686029.672504	2	1	2.077636	687047.719984	687047.697280	689137.633948	689137.626770	00121	f	1948-07	70.857991	0
117	1	1.242885	691643.492342	691643.481812	692903.055618	692903.049705	2	2	1.179347	693904.344865	693904.339171	695089.519143	695089.513764	00121	f	1948-07	70.857991	1
118	1	1.479297	697592.694417	697592.686689	699090.095836	699090.089836	2	2	0.942244	700091.280628	700091.275785	701053.172866	701053.164490	00121	f	1948-07	70.857991	0
119	1	0.741496	703561.233000	703561.219778	704319.512170	704319.506288	2	2	0.100419	705320.374001	705320.370475	705428.208249	705428.203248	00121	f	1948-07	70.857991	1
120	1	0.905377	707945.194625	707945.173581	708866.676993	708866.672176	2	2	0.977551	709868.916344	709868.910535	710856.243658	710856.236922	00121	f	1948-07	70.857991	1
121	1	1.519492	713361.260880	713361.253055	714898.485477	714898.478455	2	2	1.035061	715913.934762	715913.919948	716963.632901	716963.626205	00121	f	1948-07	70.857991	0
122	1	1.228248	719495.013243	719494.964786	720740.019620	720740.015356	3	1	1.770761	721740.977686	721740.972794	723516.184738	723516.177841	00121	f	1948-07	70.857991	1
123	1	1.156952	726028.992326	726028.967073	727203.160164	727203.154101	2	2	1.229859	728215.855308	728215.842997	729458.925552	729458.921880	00121	f	1948-07	70.857991	1
124	1	1.159034	731961.740497	731961.736000	733139.503316	733139.498375	2	2	0.928911	734141.048833	734141.041057	735075.308130	735075.304686	00121	f	1948-07	70.857991	1
125	1	0.982150	737596.247272	737596.227779	738595.430769	738595.427322	3	1	1.240819	739599.691744	739599.683296	740854.264891	740854.260121	00121	f	1948-07	70.857991	0
126	1	1.120762	743380.576843	743380.557892	744517.713485	744517.707114	2	2	2.067579	745519.498255	745519.479874	747597.951968	747597.948495	00121	f	1948-07	70.857991	1
127	1	1.487527	750113.870751	750113.840089	751618.433976	751618.428441	2	2	0.836845	752619.540023	752619.534272	753467.785365	753467.779781	00121	f	1948-07	70.857991	1
128	1	0.945443	755997.123221	755997.112227	756960.073565	756960.070078	2	2	2.203771	757960.906479	757960.903125	760168.761971	760168.756350	00121	f	1948-07	70.857991	0
129	1	1.403833	762681.135317	762681.122902	764102.935400	764102.931972	2	2	1.696422	765117.363629	765117.351867	766828.781264	766828.774292	00121	f	1948-07	70.857991	1
130	1	1.386473	769348.374178	769348.357902	770753.239805	770753.234670	2	2	1.410218	771767.764799	771767.747711	773193.281517	773193.278271	00121	f	1948-07	70.857991	1
131	1	1.194253	775699.632613	775699.618056	776910.588642	776910.583149	3	1	1.259727	777911.638674	777911.633080	779175.731910	779175.727834	00121	f	1948-07	70.857991	1
132	1	1.359263	781682.939968	781682.790797	783059.273189	783059.268577	3	1	1.087301	784069.112300	784069.098084	785170.567126	785170.563695	00121	f	1948-07	70.857991	1
133	1	0.863399	787700.463113	787700.435322	788580.074270	788580.070724	2	2	1.182384	789581.073496	789581.069840	790782.401507	790782.395930	00121	f	1948-07	70.857991	0
134	1	1.472880	806501.232180	806501.224374	807990.756443	807990.753035	2	2	2.029824	808992.754270	808992.744400	811031.464517	811031.460711	00121	f	1948-07	70.857991	1
135	1	1.309856	813534.076692	813534.070672	814862.749969	814862.745759	2	2	0.854570	815863.779004	815863.773028	816723.142882	816723.137111	00121	f	1948-07	70.857991	1
136	1	1.168888	819235.135319	819235.116554	820421.469186	820421.463928	2	2	1.694129	821436.044443	821436.040456	823146.762603	823146.757136	00121	f	1948-07	70.857991	0
137	1	2.193988	825652.283026	825652.262536	827863.844436	827863.839026	3	1	1.071712	828864.821235	828864.817636	829941.410498	829941.405059	00121	f	1948-07	70.857991	1
138	1	0.977165	832469.252226	832469.242322	833465.164111	833465.158475	3	1	0.935623	834466.093482	834466.087898	835405.927469	835405.919900	00121	f	1948-07	70.857991	1
139	1	1.016240	837919.784845	837919.765716	838952.960401	838952.956073	2	2	1.169978	839954.797617	839954.793413	841140.221023	841140.216221	00121	f	1948-07	70.857991	1
140	1	0.926498	843654.626218	843654.608755	844596.969657	844596.966347	3	2	1.111571	845597.881525	845597.877832	846715.455486	846715.451767	00121	f	1948-07	70.857991	0
141	1	1.157777	849220.369035	849220.355485	850395.484692	850395.480685	2	1	1.830874	851406.161416	851406.148263	853252.259629	853252.254391	00121	f	1948-07	70.857991	0
142	1	0.498780	855771.783906	855771.765605	856286.672342	856286.667814	2	1	1.560852	857290.760538	857290.736583	858865.692830	858865.686790	00121	f	1948-07	70.857991	0
143	1	0.728371	861388.773654	861388.750531	862134.155746	862134.150573	2	2	1.128066	863135.031266	863135.026303	864266.470566	864266.466924	00121	f	1948-07	70.857991	1
144	1	1.071847	866771.989209	866771.963820	867860.709069	867860.705840	2	2	0.930911	868874.959886	868874.945261	869820.184741	869820.177200	00121	f	1948-07	70.857991	1
145	1	1.086798	872339.053048	872339.038078	873442.378336	873442.374540	2	2	1.019865	874458.319352	874458.308789	875493.110304	875493.103948	00121	f	1948-07	70.857991	1
146	1	1.071519	878007.197976	878007.146368	879094.887718	879094.883178	2	2	0.652629	880096.156595	880096.150789	880760.215584	880760.208754	00121	f	1948-07	70.857991	1
147	1	0.999858	883273.047202	883273.026609	884290.388905	884290.382110	2	2	0.904697	885292.693674	885292.684442	886211.716055	886211.710427	00121	f	1948-07	70.857991	1
148	1	1.081236	888740.876181	888740.784427	889838.008447	889837.992309	2	2	0.958579	890839.008366	890839.002138	891815.829151	891815.823186	00121	f	1948-07	70.857991	1
149	1	1.070285	894323.957621	894323.795467	895411.114501	895411.107791	2	2	1.016674	896426.624753	896426.612162	897457.662899	897457.658200	00121	f	1948-07	70.857991	0
150	1	1.121105	899991.051830	899991.030894	901129.018293	901129.011287	3	1	1.513834	902130.668996	902130.657264	903654.881986	903654.877419	00121	f	1948-07	70.857991	1
151	1	1.146414	906157.002326	906156.998841	907321.712987	907321.709433	2	2	1.418250	908322.746743	908322.743243	909760.064737	909760.060050	00121	f	1948-07	70.857991	0
152	1	0.863843	912292.662979	912292.639005	913172.283066	913172.279513	3	1	1.099637	914173.270879	914173.267523	915291.761885	915291.756094	00121	f	1948-07	70.857991	1
153	1	0.794368	917825.307137	917825.292728	918637.011573	918637.005541	2	2	1.164439	919637.935675	919637.932258	920807.327570	920807.322162	00121	f	1948-07	70.857991	1
154	1	1.223221	923326.156011	923326.135947	924566.337198	924566.333813	2	2	1.032365	925579.658902	925579.633573	926625.882544	926625.877337	00121	f	1948-07	70.857991	0
155	1	1.186549	929142.680468	929142.668667	930345.995738	930345.992392	2	2	0.758681	931361.733851	931361.720349	932135.721012	932135.715608	00121	f	1948-07	70.857991	1
156	1	1.133792	934643.390215	934643.376381	935794.559162	935794.553576	2	2	0.801649	936797.066114	936797.057155	937612.487309	937612.483199	00121	f	1948-07	70.857991	0
157	1	1.035397	940126.878914	940126.864154	941179.276830	941179.272840	2	1	1.117152	942182.405759	942182.400200	943311.606859	943311.601710	00121	f	1948-07	70.857991	1
158	1	0.965656	945827.390921	945827.381641	946810.258183	946810.251123	2	1	0.766050	947812.611556	947812.601108	948593.885238	948593.877689	00121	f	1948-07	70.857991	0
159	1	0.736667	951110.933046	951110.909767	951864.665868	951864.662259	3	1	1.001765	952867.223583	952867.210463	953879.747802	953879.744052	00121	f	1948-07	70.857991	0
160	1	0.693484	956395.730794	956395.718218	957105.820865	957105.814042	3	2	0.928889	958106.877805	958106.871563	959040.422444	959040.418573	00121	f	1948-07	70.857991	0
161	1	0.839698	961545.416259	961545.401926	962402.056005	962402.052536	2	2	1.111615	963403.128285	963403.123845	964523.872292	964523.866453	00121	f	1948-07	70.857991	0
162	1	0.724998	967028.689385	967028.679010	967771.181162	967771.177379	2	1	0.764262	968772.221016	968772.215813	969543.315934	969543.312143	00121	f	1948-07	70.857991	1
163	1	1.036112	972065.615847	972065.586654	973115.449578	973115.446256	2	1	1.018080	974132.535083	974132.525695	975164.071686	975164.067936	00121	f	1948-07	70.857991	0
164	1	0.657556	977696.816323	977696.771171	978370.660332	978370.655243	2	1	0.715078	979372.092107	979372.079425	980095.102466	980095.098902	00121	f	1948-07	70.857991	0
165	2	2.051008	982613.845867	982613.639046	984681.365514	984681.358393	3	2	1.413077	985683.526164	985683.513772	987110.820781	987110.815173	00121	f	1948-07	70.857991	0
166	2	0.841821	989629.840023	989629.830688	990489.458678	990489.454030	2	2	2.130523	991490.946261	991490.942497	993628.254491	993628.248931	00121	f	1948-07	70.857991	1
167	2	1.879836	996147.740764	996147.708266	998044.793700	998044.789263	3	1	1.159496	999045.691686	999045.686767	1000224.347000	1000224.343417	00121	f	1948-07	70.857991	1
168	2	1.570247	1002731.795705	1002731.762178	1004318.821178	1004318.805968	2	2	0.863430	1005320.296620	1005320.290571	1006195.349577	1006195.346310	00121	f	1948-07	70.857991	0
169	2	0.893715	1008697.513325	1008697.508865	1009609.255620	1009609.251302	3	1	1.009420	1010610.159561	1010610.153527	1011624.810291	1011624.806048	00121	f	1948-07	70.857991	1
170	2	0.899764	1014132.519061	1014132.496083	1015049.216779	1015049.212413	2	2	0.834870	1016053.488138	1016053.468575	1016901.722019	1016901.718282	00121	f	1948-07	70.857991	1
171	2	0.765971	1019416.223223	1019416.097573	1020198.998727	1020198.994958	3	1	1.071506	1021202.810030	1021202.770134	1022287.405096	1022287.401105	00121	f	1948-07	70.857991	1
172	2	1.225088	1024816.919305	1024816.896806	1026058.119017	1026058.113943	3	1	1.344627	1027063.956431	1027063.947274	1028429.091230	1028429.085213	00121	f	1948-07	70.857991	1
173	2	0.673378	1030950.068984	1030950.059811	1031640.041628	1031640.034965	3	1	1.237256	1032641.045684	1032641.040504	1033887.780523	1033887.755229	00121	f	1948-07	70.857991	0
174	2	0.679679	1036401.532960	1036401.515423	1037097.137305	1037097.131960	3	1	0.937426	1038097.997738	1038097.992046	1039054.619934	1039054.616728	00121	f	1948-07	70.857991	0
175	2	0.799404	1041566.806062	1041566.794337	1042383.348268	1042383.344797	2	2	0.828710	1043384.605147	1043384.602155	1044230.246769	1044230.239891	00121	f	1948-07	70.857991	1
176	2	0.928606	1046733.906483	1046733.883718	1047679.579594	1047679.573917	2	2	0.702265	1048680.695631	1048680.688147	1049387.034964	1049387.031450	00121	f	1948-07	70.857991	0
177	2	0.871642	1051917.770503	1051917.760562	1052806.872476	1052806.867177	2	2	0.781903	1053819.607416	1053819.596660	1054617.623961	1054617.615841	00121	f	1948-07	70.857991	1
178	2	0.924046	1057135.208498	1057135.194645	1058076.108366	1058076.101755	2	2	0.677712	1059086.768579	1059086.760289	1059779.597584	1059779.593255	00121	f	1948-07	70.857991	0
179	2	0.700356	1062285.184233	1062285.169286	1063003.034771	1063003.029177	3	1	1.467616	1064006.152700	1064006.146001	1065486.750522	1065486.743333	00121	f	1948-07	70.857991	1
180	2	0.820995	1068019.324144	1068019.307254	1068857.101922	1068857.067540	3	1	1.049777	1069859.629420	1069859.586380	1070919.015328	1070919.010520	00121	f	1948-07	70.857991	0
181	2	0.968887	1073436.667637	1073436.634694	1074421.806758	1074421.803474	3	2	0.755058	1075423.984031	1075423.980243	1076191.760712	1076191.752081	00121	f	1948-07	70.857991	0
182	2	0.545120	1078720.324528	1078720.299517	1079282.351558	1079282.345762	2	2	0.869715	1080283.361014	1080283.355392	1081156.744975	1081156.738590	00121	f	1948-07	70.857991	1
183	2	0.791519	1083670.839966	1083670.785095	1084478.470966	1084478.467208	3	1	1.097201	1085479.928139	1085479.924480	1086584.852970	1086584.847835	00121	f	1948-07	70.857991	1
184	2	0.806952	1089104.604714	1089104.577537	1089927.641506	1089927.637794	2	2	0.803829	1090929.173868	1090929.167668	1091741.195316	1091741.188239	00121	f	1948-07	70.857991	1
185	2	1.590980	1094254.010699	1094254.000724	1095862.139551	1095862.133606	2	2	1.064757	1096864.657306	1096864.647688	1097936.279633	1097936.274051	00121	f	1948-07	70.857991	0
186	2	0.906153	1100454.689166	1100454.676478	1101378.303743	1101378.297819	2	2	1.036030	1102379.475862	1102379.469964	1103424.924195	1103424.917606	00121	f	1948-07	70.857991	1
187	0	0.000000	1105939.146797	1105939.121710	0.000000	0.000000
188	2	1.183499	1109954.893584	1109954.856380	1111156.415671	1111156.411343	2	2	0.819985	1112158.813205	1112158.804389	1112992.424001	1112992.417307	00121	f	1948-07	70.857991	1
189	2	0.819419	1115505.837444	1115505.830789	1116341.962960	1116341.957926	3	1	1.429323	1117344.429023	1117344.424353	1118785.756498	1118785.750512	00121	f	1948-07	70.857991	1
190	2	0.941573	1121307.230346	1121307.215189	1122265.422604	1122265.415602	3	1	1.152342	1123266.738823	1123266.729563	1124425.810991	1124425.807524	00121	f	1948-07	70.857991	0
191	2	0.809274	1126956.385970	1126956.375452	1127782.500021	1127782.496427	3	1	1.039609	1128783.482617	1128783.478955	1129829.860545	1129829.854763	00121	f	1948-07	70.857991	0
192	2	0.916359	1132340.145890	1132340.132171	1133273.506898	1133273.499431	3	2	1.208828	1134276.426229	1134276.417215	1135499.270758	1135499.261119	00121	f	1948-07	70.857991	1
193	2	0.821395	1138023.986202	1138023.972842	1138862.017152	1138862.011762	2	2	0.642043	1139863.374717	1139863.357632	1140516.374745	1140516.368898	00121	f	1948-07	70.857991	1
194	2	0.822263	1143023.950112	1143023.939259	1143863.290040	1143863.284857	2	2	0.753888	1144865.046841	1144865.034083	1145628.478051	1145628.474611	00121	f	1948-07	70.857991	1
195	2	0.707838	1148141.323644	1148141.315091	1148866.280130	1148866.276089	3	2	1.876494	1149867.139170	1149867.135486	1151751.504338	1151751.498382	00121	f	1948-07	70.857991	1
196	2	0.725134	1154274.511897	1154274.502201	1155017.419987	1155017.415416	3	2	0.947940	1156028.893602	1156028.881290	1156990.323373	1156990.317983	00121	f	1948-07	70.857991	1
197	2	0.771656	1159508.523761	1159508.506115	1160297.022952	1160297.019394	3	2	0.806307	1161311.850885	1161311.826691	1162132.499554	1162132.493947	00121	f	1948-07	70.857991	0
198	2	0.734754	1164659.324776	1164659.206895	1165411.249333	1165411.243908	3	2	2.618580	1166413.488511	1166413.478458	1169044.956594	1169044.951682	00121	f	1948-07	70.857991	0
199	2	0.624390	1171559.726896	1171559.714746	1172201.346573	1172201.340122	2	2	0.701996	1173202.190165	1173202.186543	1173911.702427	1173911.698755	00121	f	1948-07	70.857991	0
200	2	1.323735	1176426.713139	1176426.694062	1177767.032507	1177767.025395	2	1	0.571830	1178769.947316	1178769.938086	1179348.890708	1179348.887063	00121	f	1948-07	70.857991	1