
trial	choice1	rts1	stim1ons_sl	stim1ons_ms	choice1ons_sl	choice1ons_ms	state	choice2	rts2	stim2ons_sl	stim2ons_ms	choice2ons_sl	choice2ons_ms	SC_ID	gender	DOB	age	won

1	1	0.564683	149.743164	149.739990	729.252197	729.234863	2	2	1.020904	1734.464844	1734.452881	2768.788086	2768.785889	00015	m	1970-01	49.573973	0
2	2	0.902915	5281.663818	5281.662109	6200.864990	6200.862793	3	1	0.658236	7203.218994	7203.209961	7872.878174	7872.875977	00015	m	1970-01	49.573973	1
3	2	0.514795	10381.788086	10381.785889	10912.822021	10912.820068	3	1	0.533517	11914.830078	11914.820068	12464.886963	12464.885010	00015	m	1970-01	49.573973	0
4	2	0.482787	14981.808838	14981.806885	15480.871094	15480.869141	2	2	1.134816	16482.603027	16482.600098	17632.917969	17632.916016	00015	m	1970-01	49.573973	0
5	2	0.924126	20149.363037	20149.359863	21088.942139	21088.941162	3	1	0.590075	22099.183105	22099.176025	22704.931152	22704.928955	00015	m	1970-01	49.573973	1
6	2	0.433428	25215.145996	25215.144043	25664.990967	25664.989014	3	1	2.247370	26665.718994	26665.716064	28928.950195	28928.947998	00015	m	1970-01	49.573973	1
7	1	0.640673	31431.912842	31431.910156	32088.988037	32088.986816	2	2	1.174672	33090.674805	33090.667969	34273.017822	34273.015869	00015	m	1970-01	49.573973	0
8	1	0.554602	36781.980957	36781.979004	37353.000000	37352.999023	2	2	0.995993	38354.701904	38354.687988	39361.089844	39361.088135	00015	m	1970-01	49.573973	0
9	1	0.447213	41865.407959	41865.405029	42329.024170	42329.021973	2	1	1.132540	43330.751953	43330.744141	44481.034912	44481.033203	00015	m	1970-01	49.573973	1
10	1	0.633864	46998.774902	46998.771973	47649.094238	47649.091064	3	1	0.687817	48650.999023	48650.990967	49353.061035	49353.058105	00015	m	1970-01	49.573973	1
11	1	0.599094	51865.508057	51865.505859	52481.057861	52481.054932	3	1	0.758511	53483.988037	53483.979004	54257.145020	54257.144043	00015	m	1970-01	49.573973	1
12	1	0.547123	56765.565918	56765.563965	57329.138916	57329.137939	3	1	0.813118	58329.705078	58329.701904	59145.157959	59145.157227	00015	m	1970-01	49.573973	1
13	1	0.519781	61649.012207	61649.010010	62185.198975	62185.196777	2	1	0.746404	63186.752930	63186.743896	63945.199951	63945.197998	00015	m	1970-01	49.573973	0
14	2	1.503800	66449.183105	66449.178955	67969.294189	67969.292969	3	2	0.979101	68970.392090	68970.383789	69961.293945	69961.292969	00015	m	1970-01	49.573973	0
15	2	0.383145	72465.837891	72465.836182	72865.412842	72865.411133	3	1	0.383039	73866.332031	73866.328857	74265.312012	74265.311035	00015	m	1970-01	49.573973	1
16	2	0.962358	76782.610840	76782.608887	77761.334961	77761.333984	2	1	0.539627	78761.808838	78761.805908	79305.303955	79305.302002	00015	m	1970-01	49.573973	1
17	2	1.048992	81816.102051	81816.099854	82881.385986	82881.383789	2	1	0.614291	83883.951904	83883.943115	84513.391113	84513.390137	00015	m	1970-01	49.573973	0
18	2	0.680972	87016.015137	87016.012939	87713.423096	87713.422119	3	1	0.900948	88714.353027	88714.348145	89633.426025	89633.424072	00015	m	1970-01	49.573973	1
19	2	0.507725	92149.453857	92149.450928	92673.618164	92673.615967	3	1	0.798882	93673.976074	93673.974121	94481.432861	94481.431885	00015	m	1970-01	49.573973	0
20	2	0.889464	96999.527100	96999.523926	97905.401123	97905.400146	3	1	0.453518	98906.521973	98906.514893	99369.491211	99369.489990	00015	m	1970-01	49.573973	1
21	2	0.486069	101882.924072	101882.921875	102385.412842	102385.411133	3	1	0.754157	103386.709961	103386.702148	104153.517090	104153.516113	00015	m	1970-01	49.573973	0
22	2	1.006782	106666.323975	106666.321045	107689.528076	107689.526123	3	2	1.022135	108690.659912	108690.651855	109721.570068	109721.569092	00015	m	1970-01	49.573973	1
23	2	0.576126	112233.074951	112233.072998	112825.620850	112825.619873	3	2	0.480689	113826.767822	113826.760010	114313.553223	114313.551025	00015	m	1970-01	49.573973	1
24	2	0.392694	116816.492188	116816.489014	117225.591797	117225.591064	3	2	0.832735	118226.695068	118226.687988	119065.660889	119065.658203	00015	m	1970-01	49.573973	1
25	2	0.425926	121583.206055	121583.204102	122025.561035	122025.559814	2	2	1.096694	123026.833008	123026.823975	124129.672119	124129.671143	00015	m	1970-01	49.573973	0
26	2	0.511938	126633.326904	126633.325195	127161.643066	127161.640869	3	1	0.483310	128162.782959	128162.776123	128649.725830	128649.724121	00015	m	1970-01	49.573973	1
27	2	0.522605	131166.712158	131166.709961	131705.714111	131705.713135	3	1	0.493192	132706.834961	132706.827881	133209.667969	133209.665039	00015	m	1970-01	49.573973	1
28	2	0.468567	135716.781006	135716.778076	136201.739014	136201.737061	2	1	0.753280	137202.881104	137202.874023	137969.820068	137969.819092	00015	m	1970-01	49.573973	0
29	2	1.069853	140483.479980	140483.476807	141569.760986	141569.760010	2	1	0.698507	142570.152100	142570.149902	143281.770020	143281.769043	00015	m	1970-01	49.573973	0
30	2	0.361193	145800.221924	145800.219971	146177.840088	146177.838135	3	2	1.346518	147178.890869	147178.884033	148529.862061	148529.860107	00015	m	1970-01	49.573973	1
31	2	0.495734	151033.658936	151033.656982	151545.800049	151545.798096	3	2	0.723808	152546.896973	152546.890137	153273.891846	153273.890869	00015	m	1970-01	49.573973	0
32	2	0.585794	155783.825928	155783.822998	156385.914062	156385.912842	3	2	0.809764	157387.115967	157387.106934	158209.913086	158209.912109	00015	m	1970-01	49.573973	1
33	2	0.564339	160717.112061	160717.109863	161297.887939	161297.887207	3	2	0.861022	162298.895996	162298.889893	163177.916016	163177.915039	00015	m	1970-01	49.573973	0
34	2	0.429716	165683.867920	165683.865967	166129.981934	166129.979980	3	2	0.708361	167131.093994	167131.085938	167841.994141	167841.993164	00015	m	1970-01	49.573973	1
35	2	0.570954	170350.607910	170350.604980	170937.961182	170937.959961	2	2	0.675676	171939.044922	171939.037109	172626.043213	172626.041016	00015	m	1970-01	49.573973	1
36	2	0.595616	175134.123047	175134.120850	175746.025146	175746.022949	2	2	1.067588	176747.024170	176747.016846	177818.021973	177818.020996	00015	m	1970-01	49.573973	0
37	2	0.699526	180334.208008	180334.204834	181050.010010	181050.009033	3	1	1.358933	182051.906982	182051.899902	183426.152100	183426.150146	00015	m	1970-01	49.573973	0
38	2	0.395533	185934.128174	185934.125977	186346.102051	186346.100098	3	2	0.571517	187347.135986	187347.130127	187922.106934	187922.105957	00015	m	1970-01	49.573973	0
39	2	0.535484	190434.293945	190434.291992	190986.118164	190986.116943	3	2	0.545509	191986.629883	191986.627197	192546.171875	192546.169922	00015	m	1970-01	49.573973	0
40	2	0.382738	195050.951904	195050.949951	195450.108154	195450.105957	2	1	0.446777	196452.795898	196452.780029	196914.174072	196914.171875	00015	m	1970-01	49.573973	1
41	2	0.488065	199417.708008	199417.706055	199922.178955	199922.177002	2	1	0.492133	200923.435059	200923.427002	201426.289062	201426.286865	00015	m	1970-01	49.573973	1
42	2	0.563349	203934.412109	203934.408936	204514.194092	204514.190918	3	1	0.836748	205515.297852	205515.291016	206354.280029	206354.278076	00015	m	1970-01	49.573973	0
43	2	0.238036	208867.808105	208867.805908	209122.278076	209122.276123	3	2	0.628020	210123.539062	210123.530029	210762.274902	210762.273193	00015	m	1970-01	49.573973	1
44	2	0.470013	213267.996094	213267.993896	213754.306152	213754.303955	3	2	0.762681	214754.808838	214754.806152	215530.330811	215530.329834	00015	m	1970-01	49.573973	0
45	2	0.407237	218034.607910	218034.605957	218458.275146	218458.272949	2	2	0.462578	219458.664062	219458.661133	219930.305908	219930.303955	00015	m	1970-01	49.573973	1
46	2	0.111297	222434.677979	222434.676025	222562.429932	222562.427979	3	2	0.658514	223563.512207	223563.504883	224226.305908	224226.303955	00015	m	1970-01	49.573973	1
47	2	0.587158	226734.862061	226734.858887	227338.325928	227338.323975	3	2	0.387344	228339.416016	228339.408936	228738.561035	228738.559082	00015	m	1970-01	49.573973	0
48	2	0.478500	231251.595947	231251.593994	231746.402100	231746.401123	3	2	0.651227	232747.400146	232747.392822	233402.491943	233402.489990	00015	m	1970-01	49.573973	1
49	2	0.611815	235918.350830	235918.349121	236546.462158	236546.459961	3	2	0.683169	237547.542969	237547.535889	238234.498047	238234.495850	00015	m	1970-01	49.573973	0
50	2	0.570458	240751.736816	240751.734131	241338.500977	241338.500000	3	1	0.475117	242339.600098	242339.592041	242826.510986	242826.510010	00015	m	1970-01	49.573973	0
51	2	0.515047	245335.016113	245335.012939	245866.498047	245866.496094	2	1	0.405781	246868.665039	246868.661865	247290.577881	247290.575928	00015	m	1970-01	49.573973	0
52	2	0.552391	249801.747070	249801.744873	250370.563965	250370.562988	3	2	0.489712	251371.638916	251371.630859	251874.568115	251874.567139	00015	m	1970-01	49.573973	0
53	2	0.001083	254385.138916	254385.137207	254402.685791	254402.684082	3	1	0.440384	255403.857910	255403.850098	255858.632080	255858.630859	00015	m	1970-01	49.573973	0
54	1	0.945613	258368.541992	258368.540039	259330.589111	259330.585938	2	2	0.715613	260331.666016	260331.657959	261050.625977	261050.624023	00015	m	1970-01	49.573973	1
55	1	0.905589	263568.623047	263568.619873	264490.628906	264490.627930	3	2	0.620928	265491.772949	265491.765869	266122.670898	266122.668945	00015	m	1970-01	49.573973	1
56	1	0.614878	268635.360107	268635.358154	269266.663086	269266.661865	2	2	0.893607	270267.733154	270267.725098	271178.755127	271178.754150	00015	m	1970-01	49.573973	0
57	1	0.924887	273685.432861	273685.430908	274626.750000	274626.746826	2	1	0.607534	275627.822021	275627.814941	276242.759033	276242.758057	00015	m	1970-01	49.573973	1
58	1	0.994204	278752.203857	278752.202148	279762.808105	279762.805908	2	1	0.562216	280763.726074	280763.718994	281330.847900	281330.846191	00015	m	1970-01	49.573973	1
59	1	0.782765	283835.572021	283835.570068	284634.770020	284634.769043	2	1	0.934811	285637.222900	285637.209961	286586.838867	286586.837158	00015	m	1970-01	49.573973	1
60	1	0.580060	289102.320068	289102.317139	289698.811035	289698.810059	2	1	1.300745	290699.285889	290699.282959	292002.854980	292002.854004	00015	m	1970-01	49.573973	0
61	1	0.459340	294519.068115	294519.066162	294994.833984	294994.833008	2	2	0.568666	295995.963135	295995.955078	296570.856201	296570.854004	00015	m	1970-01	49.573973	0
62	1	1.396669	299086.785156	299086.782959	300498.898926	300498.897949	2	2	0.788694	301499.896973	301499.891113	302290.952881	302290.950928	00015	m	1970-01	49.573973	0
63	1	0.424004	304802.552979	304802.551025	305242.984131	305242.983154	2	1	0.798681	306243.510010	306243.506836	307051.054932	307051.053955	00015	m	1970-01	49.573973	1
64	1	0.713213	309569.302979	309569.301025	310298.929932	310298.928955	2	1	0.548589	311300.040039	311300.031982	311851.007080	311851.006104	00015	m	1970-01	49.573973	1
65	1	0.649226	314369.355957	314369.354004	315035.012939	315035.010986	2	1	0.558573	316036.545166	316036.541992	316611.042969	316611.041992	00015	m	1970-01	49.573973	1
66	1	0.675173	319119.427002	319119.425049	319811.031982	319811.030029	3	1	0.711853	320812.115967	320812.108154	321531.062012	321531.060059	00015	m	1970-01	49.573973	1
67	1	1.714435	340737.895020	340737.885010	342467.271973	342467.270020	3	1	1.741004	343468.786133	343468.776855	345227.233887	345227.232910	00015	m	1970-01	49.573973	1
68	1	0.490256	347736.531006	347736.528809	348243.200195	348243.198975	2	1	0.470319	349244.730957	349244.698975	349723.279053	349723.277100	00015	m	1970-01	49.573973	0
69	1	0.862234	352236.588867	352236.587158	353115.248047	353115.247070	2	2	0.403629	354116.424072	354116.416016	354523.338135	354523.336914	00015	m	1970-01	49.573973	1
70	1	0.814139	357036.654053	357036.652100	357867.220947	357867.218994	2	2	0.452876	358868.267090	358868.259033	359339.317139	359339.315918	00015	m	1970-01	49.573973	0
71	1	0.965573	361853.417969	361853.416016	362835.386963	362835.385010	2	2	0.566179	363838.049805	363838.041016	364419.367188	364419.364990	00015	m	1970-01	49.573973	1
72	1	0.802098	366936.817871	366936.815918	367755.336182	367755.333984	3	2	0.873451	368756.414795	368756.406982	369643.383057	369643.380859	00015	m	1970-01	49.573973	0
73	1	0.481385	372153.620850	372153.619141	372651.365967	372651.364014	2	1	1.334770	373652.497070	373652.489990	375004.807129	375004.802979	00015	m	1970-01	49.573973	0
74	1	0.474712	377520.302979	377520.301025	378011.419922	378011.419189	3	2	0.767382	379012.959961	379012.945801	379787.455078	379787.453857	00015	m	1970-01	49.573973	0
75	1	0.771387	382304.315186	382304.312988	383091.504150	383091.501953	2	2	0.732055	384093.199951	384093.184082	384835.529053	384835.526855	00015	m	1970-01	49.573973	1
76	1	0.377310	387353.779053	387353.776855	387747.500977	387747.500000	3	2	0.594048	388748.200928	388748.195068	389347.608154	389347.605957	00015	m	1970-01	49.573973	0
77	1	0.669297	391853.848877	391853.846924	392539.548828	392539.546875	3	1	0.785971	393541.260986	393541.246826	394339.582031	394339.581055	00015	m	1970-01	49.573973	0
78	1	0.477242	396853.918945	396853.916016	397347.567139	397347.564941	2	2	0.625948	398349.102051	398349.090088	398979.640869	398979.639160	00015	m	1970-01	49.573973	1
79	1	0.459822	401487.320801	401487.318115	401963.555176	401963.552979	2	2	1.009283	402964.948975	402964.937012	403979.710205	403979.708984	00015	m	1970-01	49.573973	0
80	1	0.059803	406487.401855	406487.400146	406563.604980	406563.603027	2	1	1.137181	407564.681152	407564.672852	408707.665039	408707.663086	00015	m	1970-01	49.573973	0
81	1	0.574448	411220.804932	411220.802002	411811.656982	411811.655029	2	2	0.695146	412812.739990	412812.730957	413515.713867	413515.712158	00015	m	1970-01	49.573973	0
82	1	0.670416	416020.874023	416020.870850	416707.697021	416707.695068	2	1	0.979206	417708.826172	417708.817871	418699.871094	418699.868896	00015	m	1970-01	49.573973	0
83	2	0.527090	421204.268066	421204.266113	421747.781982	421747.781006	3	2	1.113755	422748.867920	422748.859863	423867.812988	423867.810059	00015	m	1970-01	49.573973	1
84	2	0.448375	426371.007080	426371.004150	426835.820068	426835.818115	3	2	1.293738	427839.041992	427839.034180	429147.876953	429147.873779	00015	m	1970-01	49.573973	0
85	2	0.548967	431654.423096	431654.421143	432219.813965	432219.811035	3	1	0.934344	433222.389893	433222.380859	434171.883057	434171.880859	00015	m	1970-01	49.573973	0
86	2	0.395653	436687.843018	436687.840088	437099.895996	437099.895020	3	2	0.611626	438101.043945	438101.036133	438715.905029	438715.903076	00015	m	1970-01	49.573973	0
87	2	0.558274	441221.229980	441221.227783	441795.921143	441795.918945	2	2	1.447615	442797.015869	442797.008057	444251.957031	444251.956055	00015	m	1970-01	49.573973	0
88	2	0.632886	446754.638916	446754.636963	447403.954102	447403.953125	3	1	0.454874	448405.096924	448405.095215	448875.963867	448875.961914	00015	m	1970-01	49.573973	0
89	1	0.727556	451388.052002	451388.050049	452132.016846	452132.015869	2	2	1.298219	453133.116943	453133.109131	454436.040039	454436.038086	00015	m	1970-01	49.573973	1
90	1	0.520827	456954.802002	456954.799072	457492.045898	457492.043945	2	2	0.499493	458493.131836	458493.125000	459004.064941	459004.062988	00015	m	1970-01	49.573973	1
91	2	0.690116	461521.532959	461521.531006	462228.066895	462228.064941	3	2	0.862153	463229.151123	463229.142822	464100.127930	464100.126953	00015	m	1970-01	49.573973	0
92	2	0.382752	466604.958008	466604.955811	467004.132080	467004.129883	2	2	1.478742	468006.151855	468006.144043	469500.156982	469500.154053	00015	m	1970-01	49.573973	1
93	2	0.414683	472005.012939	472005.010986	472436.122070	472436.121094	3	1	1.349339	473437.128174	473437.120850	474804.133789	474804.133057	00015	m	1970-01	49.573973	0
94	1	0.785977	477321.762207	477321.758057	478124.160156	478124.159180	3	2	0.713976	479125.362793	479125.354004	479852.180908	479852.179932	00015	m	1970-01	49.573973	0
95	1	0.424638	482355.165039	482355.163086	482796.229980	482796.229004	2	1	0.999311	483797.380859	483797.373047	484804.255859	484804.255127	00015	m	1970-01	49.573973	0
96	1	0.513907	487321.904053	487321.902100	487852.233887	487852.232910	2	2	0.548564	488853.347168	488853.338867	489420.248047	489420.245850	00015	m	1970-01	49.573973	1
97	1	0.441195	491938.653076	491938.651123	492396.260986	492396.260010	2	2	0.583156	493397.416992	493397.408936	493988.238037	493988.236816	00015	m	1970-01	49.573973	0
98	1	1.066505	496505.378906	496505.376953	497588.303955	497588.302002	2	1	0.943176	498589.869141	498589.860840	499548.356934	499548.355225	00015	m	1970-01	49.573973	0
99	1	0.412390	502055.453125	502055.450928	502484.279785	502484.278076	3	2	0.555785	503485.353027	503485.346191	504044.362061	504044.360840	00015	m	1970-01	49.573973	0
100	1	0.448415	506555.532959	506555.531006	507020.364014	507020.363037	3	2	0.557711	508023.422852	508023.415039	508596.355957	508596.354004	00015	m	1970-01	49.573973	0
101	1	0.042428	511105.637939	511105.635010	511164.445801	511164.444092	3	1	0.640404	512165.552002	512165.544922	512812.428955	512812.427979	00015	m	1970-01	49.573973	1
102	1	0.529725	515322.326904	515322.324951	515868.468018	515868.465820	3	1	0.540408	516869.558105	516869.551025	517412.501953	517412.500000	00015	m	1970-01	49.573973	0
103	1	0.409671	519922.381836	519922.379883	520348.479004	520348.478027	2	2	0.416989	521349.577881	521349.570068	521772.497070	521772.496094	00015	m	1970-01	49.573973	1
104	1	0.434955	524289.081055	524289.078857	524740.503174	524740.500977	3	2	0.808954	525741.600098	525741.592041	526564.528076	526564.524902	00015	m	1970-01	49.573973	0
105	2	0.531639	529072.519043	529072.516846	529620.605957	529620.604980	3	1	0.749589	530623.830078	530623.822021	531388.555176	531388.554199	00015	m	1970-01	49.573973	0
106	2	0.458192	533905.937012	533905.935059	534380.541992	534380.541016	3	1	0.967579	535381.625977	535381.617920	536356.623779	536356.622070	00015	m	1970-01	49.573973	1
107	2	0.555494	538872.658936	538872.656982	539444.585205	539444.583008	3	1	0.484814	540445.811035	540445.802979	540940.592041	540940.589844	00015	m	1970-01	49.573973	1
108	1	0.772130	543456.043945	543456.041992	544244.641113	544244.638916	2	2	0.780831	545245.719971	545245.712158	546036.693115	546036.691895	00015	m	1970-01	49.573973	0
109	1	0.448712	548539.469971	548539.468018	549004.613770	549004.613037	2	1	1.238103	550007.386963	550007.379150	551260.708984	551260.707031	00015	m	1970-01	49.573973	0
110	1	0.567406	553772.873779	553772.872070	554356.716797	554356.715820	2	2	0.672085	555357.871094	555357.862061	556044.746826	556044.745850	00015	m	1970-01	49.573973	1
111	1	0.440085	558556.258057	558556.256104	559012.791992	559012.790039	2	2	0.469976	560013.998047	560013.989014	560492.732910	560492.729980	00015	m	1970-01	49.573973	1
112	1	0.437933	563006.354004	563006.351074	563460.719971	563460.718994	3	2	0.443993	564461.916016	564461.906982	564916.805908	564916.802979	00015	m	1970-01	49.573973	1
113	1	0.405326	567423.095947	567423.093994	567844.850098	567844.847900	2	2	0.636628	568845.928955	568845.921143	569492.844971	569492.842041	00015	m	1970-01	49.573973	0
114	1	0.461869	572006.536865	572006.535156	572484.797119	572484.793945	2	1	0.707370	573485.868896	573485.862061	574196.965088	574196.964111	00015	m	1970-01	49.573973	1
115	1	0.385911	576706.559814	576706.557129	577108.895020	577108.893799	2	1	0.617886	578109.878174	578109.870850	578740.891113	578740.890137	00015	m	1970-01	49.573973	0
116	1	0.523948	581256.624023	581256.622070	581796.999023	581796.997070	3	1	0.606533	582797.466064	582797.463867	583412.934082	583412.931885	00015	m	1970-01	49.573973	1
117	1	0.481135	585923.354004	585923.352051	586420.924072	586420.922119	2	1	0.453205	587421.902832	587421.896973	587893.016113	587893.013916	00015	m	1970-01	49.573973	1
118	1	0.501758	590406.753174	590406.750977	590924.943848	590924.942871	2	1	0.521177	591926.071777	591926.064941	592461.050049	592461.049072	00015	m	1970-01	49.573973	0
119	1	0.479057	594973.490967	594973.489014	595468.976074	595468.975098	2	2	1.059767	596469.450928	596469.447998	597533.046143	597533.045166	00015	m	1970-01	49.573973	1
120	1	0.988397	600040.235107	600040.232910	601045.067139	601045.063965	2	2	0.532372	602046.257080	602046.249023	602589.076172	602589.073975	00015	m	1970-01	49.573973	0
121	1	0.401673	605107.027100	605107.023926	605525.085938	605525.083984	2	1	0.337083	606526.263916	606526.256104	606877.173828	606877.172852	00015	m	1970-01	49.573973	0
122	1	0.438268	609390.373047	609390.371094	609845.083008	609845.079834	3	2	0.684333	610846.265137	610846.256104	611541.156982	611541.155029	00015	m	1970-01	49.573973	0
123	1	1.379660	614057.072998	614057.071045	615453.201904	615453.201172	2	2	0.460262	616454.185059	616454.178223	616917.180176	616917.177979	00015	m	1970-01	49.573973	0
124	1	0.500866	619423.821045	619423.819092	619941.145020	619941.144043	2	1	0.504241	620942.357910	620942.348877	621461.209961	621461.208008	00015	m	1970-01	49.573973	0
125	1	1.046813	623973.896973	623973.895020	625037.165039	625037.163086	2	2	0.540202	626038.259033	626038.251953	626597.250977	626597.249023	00015	m	1970-01	49.573973	1
126	1	0.553449	629107.309082	629107.306885	629677.202881	629677.201904	3	2	0.738867	630678.279053	630678.271973	631429.342041	631429.339844	00015	m	1970-01	49.573973	1
127	1	0.464061	633940.775879	633940.773926	634421.231934	634421.229980	2	2	0.692825	635422.302979	635422.295166	636133.354004	636133.352051	00015	m	1970-01	49.573973	0
128	1	0.516058	638640.822021	638640.820068	639173.302002	639173.301025	2	1	0.478693	640175.395020	640175.388184	640669.277832	640669.276123	00015	m	1970-01	49.573973	0
129	1	0.542705	643174.185059	643174.182861	643733.333984	643733.332764	2	2	0.360730	644734.489990	644734.482178	645101.376953	645101.375977	00015	m	1970-01	49.573973	0
130	2	0.541322	647607.610107	647607.608154	648165.354980	648165.354004	2	1	1.479422	649166.435059	649166.427002	650653.495117	650653.492920	00015	m	1970-01	49.573973	0
131	2	0.599296	653157.883057	653157.881104	653773.415039	653773.412842	3	2	0.798680	654775.624023	654775.615967	655589.488037	655589.485840	00015	m	1970-01	49.573973	1
132	2	0.465258	658107.722900	658107.721191	658589.442139	658589.440186	2	2	1.053948	659592.417969	659592.408936	660661.494873	660661.494141	00015	m	1970-01	49.573973	0
133	2	0.374514	663174.499023	663174.496826	663565.445801	663565.444092	3	1	0.503248	664566.513916	664566.507080	665077.534912	665077.532959	00015	m	1970-01	49.573973	0
134	2	1.389658	696792.916992	696792.905029	698197.750000	698197.749023	3	2	0.533745	699198.952881	699198.944092	699741.870850	699741.868896	00015	m	1970-01	49.573973	0
135	2	0.418901	702258.416992	702258.415039	702693.738037	702693.737061	3	1	0.553622	703694.923828	703694.915039	704261.820068	704261.818848	00015	m	1970-01	49.573973	0
136	1	0.686309	706775.186035	706775.182861	707477.897949	707477.896973	2	1	0.882269	708478.885986	708478.878906	709373.868896	709373.867920	00015	m	1970-01	49.573973	1
137	1	0.473528	711891.901123	711891.898926	712381.843018	712381.841064	2	1	0.534165	713382.915039	713382.906982	713925.837891	713925.837158	00015	m	1970-01	49.573973	0
138	1	0.427464	716441.969971	716441.968018	716885.855957	716885.854004	2	1	0.458153	717886.935059	717886.927002	718349.891846	718349.890869	00015	m	1970-01	49.573973	1
139	1	0.730814	720858.695068	720858.692871	721605.933838	721605.932129	2	1	0.524773	722606.420166	722606.416992	723149.919922	723149.918213	00015	m	1970-01	49.573973	0
140	1	0.066718	725658.765137	725658.761963	725741.914062	725741.911865	3	1	1.191442	726743.468018	726743.459961	727949.977783	727949.977051	00015	m	1970-01	49.573973	0
141	1	0.538651	730458.847168	730458.844971	731013.906982	731013.905029	3	2	0.740758	732014.973877	732014.967041	732766.035156	732766.032959	00015	m	1970-01	49.573973	1
142	1	0.561995	735275.574951	735275.572998	735853.988037	735853.987061	2	2	0.811337	736855.081055	736855.072998	737670.023926	737670.021973	00015	m	1970-01	49.573973	0
143	1	0.574002	740175.631104	740175.628906	740766.083984	740766.068115	2	1	1.206686	741767.160889	741767.153076	742982.116943	742982.115967	00015	m	1970-01	49.573973	0
144	1	0.809275	745492.372070	745492.369873	746318.100830	746318.100098	2	2	0.712615	747318.434082	747318.432129	748038.126953	748038.125977	00015	m	1970-01	49.573973	1
145	1	0.543246	750542.427002	750542.425049	751102.177002	751102.175049	2	2	0.489280	752103.266113	752103.257812	752598.181885	752598.180176	00015	m	1970-01	49.573973	0
146	1	0.552534	755109.165039	755109.163086	755678.149902	755678.147949	3	2	1.537847	756679.333008	756679.325195	758230.148193	758230.145996	00015	m	1970-01	49.573973	1
147	1	0.511170	760742.599121	760742.595947	761270.209961	761270.208984	2	2	0.602496	762271.296143	762271.287842	762878.225098	762878.222900	00015	m	1970-01	49.573973	1
148	1	0.965130	765392.677002	765392.675049	766374.233887	766374.232178	2	2	0.589824	767376.291992	767376.290039	767982.291016	767982.289062	00015	m	1970-01	49.573973	0
149	1	0.089099	770492.754883	770492.752930	770598.322021	770598.320068	3	2	0.677135	771599.381104	771599.373047	772286.328125	772286.325928	00015	m	1970-01	49.573973	0
150	1	0.509068	774792.850098	774792.847900	775318.312988	775318.312012	3	1	0.432425	776319.396973	776319.389160	776758.375977	776758.358887	00015	m	1970-01	49.573973	0
151	1	1.017719	779276.213867	779276.211914	780310.357178	780310.354980	3	2	0.624393	781311.531982	781311.522949	781950.395020	781950.394043	00015	m	1970-01	49.573973	0
152	1	0.690217	784459.619141	784459.616943	785166.286865	785166.284180	3	2	0.766297	786167.357910	786167.350098	786942.375000	786942.374023	00015	m	1970-01	49.573973	0
153	1	0.362250	789459.703857	789459.702148	789838.378906	789838.376953	3	1	0.411619	790838.743896	790838.741943	791254.446045	791254.445068	00015	m	1970-01	49.573973	0
154	2	0.894288	793759.774902	793759.771973	794670.487061	794670.470947	3	2	2.122274	795671.552002	795671.544189	797798.491943	797798.489990	00015	m	1970-01	49.573973	1
155	2	0.464207	800309.870850	800309.869141	800790.508057	800790.492188	3	2	0.460809	801790.970215	801790.967041	802270.452881	802270.452148	00015	m	1970-01	49.573973	1
156	2	0.405459	804776.596924	804776.594971	805198.489990	805198.489014	3	2	1.204795	806199.570068	806199.562012	807414.516846	807414.515137	00015	m	1970-01	49.573973	1
157	2	0.367371	809926.677979	809926.676025	810310.472900	810310.471191	3	2	1.096109	811311.388916	811311.383057	812422.554932	812422.552979	00015	m	1970-01	49.573973	1
158	2	0.551376	814926.737061	814926.733887	815494.553955	815494.552002	3	2	1.064735	816495.608154	816495.600098	817574.593994	817574.593018	00015	m	1970-01	49.573973	0
159	2	0.656667	820093.614990	820093.613037	820766.581055	820766.580078	2	2	0.926061	821767.750000	821767.741943	822702.666992	822702.666016	00015	m	1970-01	49.573973	1
160	2	0.499978	825210.355957	825210.354004	825726.631836	825726.629883	3	2	0.783357	826728.246094	826728.236816	827526.705078	827526.704102	00015	m	1970-01	49.573973	0
161	2	0.690616	830043.742920	830043.739990	830750.677979	830750.676025	3	1	0.918607	831751.940918	831751.928955	832678.687012	832678.685059	00015	m	1970-01	49.573973	1
162	2	0.428590	835193.729004	835193.727051	835638.727051	835638.726074	2	1	0.466594	836640.325195	836640.312988	837126.746826	837126.745117	00015	m	1970-01	49.573973	1
163	2	0.562559	839643.891113	839643.888916	840222.760010	840222.759033	3	1	0.443897	841223.820068	841223.812988	841670.791016	841670.789062	00015	m	1970-01	49.573973	0
164	1	0.781128	844177.169189	844177.166992	844974.735107	844974.732910	2	2	0.637179	845975.797852	845975.791016	846630.812988	846630.812012	00015	m	1970-01	49.573973	1
165	1	1.238471	849143.913086	849143.910889	850398.827148	850398.824951	2	1	1.004505	851400.447998	851400.435059	852414.902100	852414.900146	00015	m	1970-01	49.573973	1
166	1	0.615070	854927.299072	854927.296875	855558.843018	855558.842041	2	1	0.669766	856561.833008	856561.824951	857246.887939	857246.885986	00015	m	1970-01	49.573973	0
167	1	0.485724	859760.707031	859760.705078	860262.898926	860262.896973	2	2	0.569694	861264.069092	861264.061035	861846.888916	861846.888184	00015	m	1970-01	49.573973	1
168	1	0.469685	864360.780029	864360.778076	864846.927979	864846.927002	2	2	0.586317	865847.450928	865847.447998	866446.924072	866446.920898	00015	m	1970-01	49.573973	1
169	1	0.421594	868960.877930	868960.875977	869398.910156	869398.907959	2	2	0.524294	870399.971924	870399.964111	870934.942871	870934.942139	00015	m	1970-01	49.573973	0
170	1	0.146574	873444.250977	873444.248047	873607.280029	873607.277832	2	1	0.508306	874608.350098	874608.343018	875119.031006	875119.029053	00015	m	1970-01	49.573973	1
171	1	0.482921	877627.638184	877627.635986	878127.027100	878127.024902	3	1	0.702928	879128.910156	879128.901855	879847.045898	879847.044922	00015	m	1970-01	49.573973	0
172	1	0.549481	882361.043945	882361.041992	882926.984131	882926.982910	2	2	0.654851	883929.042969	883929.033936	884599.041016	884599.040039	00015	m	1970-01	49.573973	1
173	1	0.615529	887111.108154	887111.105957	887743.104004	887743.102051	2	2	0.382204	888745.739990	888745.730957	889143.138916	889143.137939	00015	m	1970-01	49.573973	1
174	1	0.497433	891661.181885	891661.179199	892175.075928	892175.074951	3	2	0.588799	893176.151123	893176.143799	893783.128906	893783.127930	00015	m	1970-01	49.573973	0
175	1	0.328080	896294.581055	896294.579102	896639.124023	896639.123047	3	1	0.442768	897640.211182	897640.203857	898087.163086	898087.162109	00015	m	1970-01	49.573973	0
176	1	0.092085	900594.642822	900594.640869	900703.191162	900703.190186	2	2	0.336042	901704.552979	901704.544189	902047.166992	902047.165771	00015	m	1970-01	49.573973	0
177	1	0.605381	904561.376953	904561.375000	905183.217041	905183.214844	2	1	0.668738	906184.291016	906184.282959	906863.260010	906863.259033	00015	m	1970-01	49.573973	0
178	2	0.812665	909379.302002	909379.298828	910207.237061	910207.235107	3	2	0.531353	911208.226074	911208.218994	911759.279053	911759.277100	00015	m	1970-01	49.573973	0
179	2	0.096558	914278.181152	914278.177979	914391.206055	914391.203857	2	1	0.475971	915392.452881	915392.443848	915887.291992	915887.290039	00015	m	1970-01	49.573973	0
180	2	0.443911	918394.934814	918394.932129	918855.280029	918855.278076	3	2	1.273921	919856.347168	919856.339844	921135.312988	921135.312012	00015	m	1970-01	49.573973	0
181	2	0.401948	923644.987061	923644.984863	924063.417969	924063.416016	2	1	0.729206	925064.479004	925064.470947	925807.342041	925807.341064	00015	m	1970-01	49.573973	1
182	2	0.471187	928311.712158	928311.709961	928799.357910	928799.356934	3	1	0.843903	929800.422852	929800.415039	930655.446045	930655.445068	00015	m	1970-01	49.573973	1
183	2	0.397231	933161.834961	933161.833008	933575.489990	933575.489014	3	1	0.812541	934576.560059	934576.553223	935407.491943	935407.489990	00015	m	1970-01	49.573973	0
184	2	0.111192	937911.885986	937911.884033	938039.508057	938039.506836	2	1	0.474453	939040.498047	939040.492188	939519.490967	939519.489014	00015	m	1970-01	49.573973	0
185	2	1.378469	942028.620850	942028.619141	943423.525146	943423.522949	2	1	0.771168	944424.515137	944424.508057	945199.595947	945199.593994	00015	m	1970-01	49.573973	0
186	2	0.863092	947712.051025	947712.049072	948591.553955	948591.552002	3	2	0.419706	949591.884033	949591.882080	950031.541992	950031.540771	00015	m	1970-01	49.573973	1
187	2	0.469693	952545.436035	952545.434082	953031.583008	953031.581787	3	2	0.738348	954032.562988	954032.556152	954783.576904	954783.574951	00015	m	1970-01	49.573973	0
188	2	0.095620	957295.511963	957295.510010	957407.567871	957407.566162	3	1	0.403050	958408.768066	958408.758789	958831.687988	958831.687012	00015	m	1970-01	49.573973	1
189	2	0.509612	961345.572021	961345.570068	961871.617188	961871.614990	3	1	0.432967	962872.686035	962872.678955	963311.683838	963311.682861	00015	m	1970-01	49.573973	0
190	1	0.450237	965829.021973	965829.020020	966295.670166	966295.667969	2	2	0.663586	967296.963867	967296.956055	967975.676025	967975.673828	00015	m	1970-01	49.573973	1
191	1	0.544371	970479.046143	970479.042969	971039.864990	971039.861816	2	2	0.490226	972040.467041	972040.461914	972535.717041	972535.716064	00015	m	1970-01	49.573973	0
192	2	0.617511	975045.781006	975045.778076	975679.718018	975679.717041	3	1	0.664213	976680.922119	976680.913818	977359.780029	977359.778809	00015	m	1970-01	49.573973	0
193	2	0.528821	979862.502197	979862.500000	980407.766113	980407.763916	3	1	0.395494	981408.114014	981408.112061	981807.791992	981807.791016	00015	m	1970-01	49.573973	1
194	2	0.406776	984312.575195	984312.572998	984735.789062	984735.788086	3	1	0.510113	985736.771973	985736.764893	986255.835938	986255.834229	00015	m	1970-01	49.573973	1
195	2	0.420684	988762.643066	988762.640869	989199.771973	989199.770020	3	1	0.411448	990200.923828	990200.913818	990623.872070	990623.869873	00015	m	1970-01	49.573973	0
196	2	0.558026	993129.379883	993129.378174	993703.833008	993703.832031	3	2	0.367419	994704.921875	994704.915039	995079.946045	995079.945068	00015	m	1970-01	49.573973	0
197	2	0.395398	997596.101074	997596.098877	998007.930908	998007.929199	3	2	0.539345	999009.012939	999009.005127	999551.907959	999551.906006	00015	m	1970-01	49.573973	0
198	1	1.128663	1002062.843018	1002062.840088	1003207.946045	1003207.943848	3	1	0.627317	1004208.281006	1004208.278809	1004839.957031	1004839.956055	00015	m	1970-01	49.573973	0
199	1	0.621311	1007346.246094	1007346.242920	1007983.994873	1007983.994141	2	2	0.395978	1008985.336914	1008985.327881	1009392.015869	1009392.014893	00015	m	1970-01	49.573973	0
200	1	0.079252	1011896.313965	1011896.312012	1011992.006104	1011992.003906	3	1	0.603257	1012993.208008	1012993.200195	1013616.021973	1013616.020996	00015	m	1970-01	49.573973	1