
trial	choice1	rts1	stim1ons_sl	stim1ons_ms	choice1ons_sl	choice1ons_ms	state	choice2	rts2	stim2ons_sl	stim2ons_ms	choice2ons_sl	choice2ons_ms	SC_ID	gender	DOB	age	won

1	0	0.000000	142.198975	142.196289	0.000000	0.000000
2	0	0.000000	4156.642090	4156.640137	0.000000	0.000000
3	1	1.988121	8173.402100	8173.400146	10177.486084	10177.484131	2	0	0.000000	11180.422119	11180.410156	0.000000	0.000000	00020	m	1970-01	49.557534 
4	1	1.867168	15190.240967	15190.239258	17073.391113	17073.389160	3	1	1.399790	18076.224121	18076.209961	19489.455322	19489.453125	00020	m	1970-01	49.557534	0
5	0	0.000000	22007.601074	22007.599121	0.000000	0.000000
6	1	1.433894	26023.501221	26023.498047	27473.508057	27473.507080	2	0	0.000000	28475.927002	28475.917969	0.000000	0.000000	00020	m	1970-01	49.557534 
7	1	1.839176	32490.255127	32490.253174	34345.568115	34345.565186	2	1	1.117118	35346.193115	35346.188965	36473.647949	36473.645264	00020	m	1970-01	49.557534	1
8	1	1.099134	38990.364990	38990.362061	40105.609131	40105.608154	3	1	1.102406	41107.515137	41107.513184	42225.642090	42225.641113	00020	m	1970-01	49.557534	1
9	1	1.165078	44740.492188	44740.490234	45921.635986	45921.635254	2	1	1.117651	46925.190186	46925.181152	48057.652100	48057.650146	00020	m	1970-01	49.557534	1
10	1	1.731726	50573.853027	50573.850098	52321.719238	52321.717041	3	1	1.493707	53325.277100	53325.270264	54833.810059	54833.809082	00020	m	1970-01	49.557534	1
11	1	1.020976	57340.614014	57340.611328	58377.714111	58377.711914	3	1	1.643513	59379.226318	59379.209961	61033.701172	61033.698975	00020	m	1970-01	49.557534	1
12	1	1.268879	63540.697998	63540.696045	64825.727295	64825.724121	2	0	0.000000	65827.551025	65827.542969	0.000000	0.000000	00020	m	1970-01	49.557534 
13	0	0.000000	69840.817139	69840.814941	0.000000	0.000000
14	1	2.488227	73857.488037	73857.486084	76361.842041	76361.840088	3	2	1.452146	77362.552246	77362.549072	78825.911133	78825.910156	00020	m	1970-01	49.557534	1
15	1	0.948767	81340.923096	81340.921143	82305.829102	82305.827148	2	2	1.486194	83308.128174	83308.126221	84810.049072	84810.048096	00020	m	1970-01	49.557534	1
16	1	1.389494	87324.430176	87324.427979	88730.012207	88730.010010	3	2	1.405277	89731.470947	89731.463135	91145.923096	91145.922119	00020	m	1970-01	49.557534	1
17	1	1.415957	93657.842041	93657.839111	95089.899902	95089.899170	2	2	1.110564	96092.532227	96092.523926	97217.996094	97217.995117	00020	m	1970-01	49.557534	1
18	1	1.229371	99724.571289	99724.569092	100970.069092	100970.068115	2	2	1.490712	101970.468994	101970.467041	103466.041992	103466.041016	00020	m	1970-01	49.557534	0
19	1	1.587272	105974.654297	105974.652100	107578.060059	107578.059082	2	2	1.371110	108578.481201	108578.479004	109962.046143	109962.042969	00020	m	1970-01	49.557534	0
20	1	1.279292	112474.705322	112474.703125	113770.146240	113770.144287	3	1	1.362799	114770.604980	114770.603271	116138.133057	116138.132080	00020	m	1970-01	49.557534	1
21	1	0.856475	118641.864014	118641.862061	119514.126953	119514.125000	2	1	1.349708	120514.723145	120514.718018	121874.154053	121874.152100	00020	m	1970-01	49.557534	0
22	1	1.522484	124391.588135	124391.586914	125930.221924	125930.219238	2	1	1.853026	126930.746094	126930.744141	128794.239990	128794.238037	00020	m	1970-01	49.557534	1
23	1	1.261765	131308.352295	131308.350098	132586.262207	132586.260986	3	1	1.930158	133587.680176	133587.669189	135522.251221	135522.249268	00020	m	1970-01	49.557534	1
24	1	0.816428	138041.808105	138041.804932	138874.359131	138874.358154	2	1	1.438954	139876.889160	139876.874268	141330.330078	141330.328125	00020	m	1970-01	49.557534	0
25	1	1.672340	143841.855957	143841.854004	145530.336182	145530.335205	2	2	1.508905	146531.468994	146531.462158	148050.368164	148050.366211	00020	m	1970-01	49.557534	0
26	1	1.187596	150558.647217	150558.645020	151762.375977	151762.374268	2	1	1.019508	152762.816162	152762.813965	153794.424072	153794.422119	00020	m	1970-01	49.557534	1
27	1	0.933564	156308.689941	156308.688232	157258.394043	157258.393066	2	1	1.343447	158260.676025	158260.662109	159618.478027	159618.476074	00020	m	1970-01	49.557534	1
28	1	0.964898	162125.480225	162125.478027	163106.514160	163106.512939	2	1	1.333451	164106.997070	164106.993164	165458.539062	165458.536133	00020	m	1970-01	49.557534	1
29	1	0.810811	167975.563965	167975.562012	168802.518066	168802.516113	2	1	1.001792	169803.609131	169803.601074	170810.467041	170810.465088	00020	m	1970-01	49.557534	1
30	1	0.732838	173325.612061	173325.610107	174074.588135	174074.586182	2	1	1.342637	175077.437988	175077.423096	176434.550049	176434.549072	00020	m	1970-01	49.557534	0
31	1	0.996052	178942.350098	178942.347900	179954.546143	179954.544922	3	2	1.490499	180955.500000	180955.494141	182450.643066	182450.642090	00020	m	1970-01	49.557534	1
32	1	2.163377	184959.131104	184959.129150	187138.661133	187138.660156	2	2	1.363915	188139.779053	188139.771240	189522.679932	189522.678223	00020	m	1970-01	49.557534	0
33	1	0.872602	192027.715088	192027.712158	192914.627930	192914.626953	3	1	1.261218	193915.064941	193915.062256	195186.700928	195186.699219	00020	m	1970-01	49.557534	1
34	1	0.781892	197692.663086	197692.661133	198490.702148	198490.698975	2	1	1.357825	199493.931885	199493.923096	200866.744141	200866.742188	00020	m	1970-01	49.557534	1
35	1	0.682578	203376.093018	203376.091064	204074.803223	204074.802246	2	1	1.142388	205077.447266	205077.438965	206234.770020	206234.769043	00020	m	1970-01	49.557534	0
36	1	1.659861	208742.830078	208742.828125	210418.833008	210418.832031	3	2	1.152806	211419.252197	211419.250000	212578.828125	212578.826172	00020	m	1970-01	49.557534	0
37	1	0.709828	215092.916016	215092.914062	215818.895996	215818.894043	3	1	1.328208	216819.418213	216819.414062	218154.841064	218154.839111	00020	m	1970-01	49.557534	1
38	1	0.695110	220659.677002	220659.675049	221370.920166	221370.919189	2	1	1.058595	222372.141113	222372.133057	223434.891113	223434.890137	00020	m	1970-01	49.557534	1
39	1	0.691665	225943.093018	225943.091064	226650.892090	226650.891113	2	1	1.007657	227651.269287	227651.267090	228667.009033	228667.007080	00020	m	1970-01	49.557534	0
40	1	0.746264	231176.494141	231176.492188	231938.902100	231938.899902	2	1	1.898583	232940.010986	232940.004150	234843.017090	234843.016113	00020	m	1970-01	49.557534	1
41	1	0.906971	237359.923096	237359.921143	238283.030029	238283.028076	3	1	0.886112	239284.115967	239284.109131	240178.949951	240178.949219	00020	m	1970-01	49.557534	1
42	1	0.637564	242693.296143	242693.293945	243347.001953	243347.000977	2	1	0.995455	244347.436279	244347.434082	245355.010010	245355.008057	00020	m	1970-01	49.557534	0
43	1	0.814891	247860.259033	247860.257080	248691.110107	248691.109131	2	1	1.069383	249694.697021	249694.688965	250779.099121	250779.098145	00020	m	1970-01	49.557534	1
44	1	0.597467	253293.456055	253293.454102	253907.058105	253907.056152	2	1	1.148681	254908.167236	254908.158936	256075.067871	256075.067139	00020	m	1970-01	49.557534	0
45	1	0.705440	258593.531982	258593.530273	259315.113037	259315.111084	2	1	1.244709	260316.204102	260316.197266	261571.202148	261571.201172	00020	m	1970-01	49.557534	1
46	1	0.670437	264076.981934	264076.980225	264763.580078	264763.578125	2	1	1.562581	265764.642090	265764.635010	267339.167969	267339.166992	00020	m	1970-01	49.557534	1
47	1	0.575338	269844.354248	269844.352051	270435.187012	270435.185303	3	1	1.168049	271435.572998	271435.571289	272611.338135	272611.337158	00020	m	1970-01	49.557534	1
48	1	0.635967	275127.102051	275127.100342	275779.228271	275779.226074	2	1	1.913835	276780.497070	276780.488037	278707.280029	278707.278076	00020	m	1970-01	49.557534	1
49	1	0.712553	281212.531982	281212.530029	281939.282227	281939.281250	2	1	0.858451	282940.332275	282940.324951	283803.284180	283803.283203	00020	m	1970-01	49.557534	0
50	1	0.676677	286310.660156	286310.658203	287003.458008	287003.457031	3	1	0.959627	288004.685059	288004.677002	288971.436035	288971.434082	00020	m	1970-01	49.557534	1
51	1	0.701950	291477.394043	291477.392090	292195.480957	292195.479248	2	1	1.049104	293195.916260	293195.913086	294259.433105	294259.431152	00020	m	1970-01	49.557534	1
52	1	0.513876	296777.469238	296777.467041	297307.500977	297307.499268	2	1	1.236359	298308.615234	298308.607178	299563.389160	299563.388184	00020	m	1970-01	49.557534	1
53	1	0.597767	302077.544189	302077.541992	302691.456055	302691.455078	2	1	0.948952	303692.609131	303692.602051	304659.448975	304659.447266	00020	m	1970-01	49.557534	1
54	1	0.553746	307177.630127	307177.627930	307747.506104	307747.503906	2	1	1.042943	308748.743164	308748.733887	309803.525146	309803.522949	00020	m	1970-01	49.557534	0
55	1	0.764478	312311.028076	312311.026123	313091.641113	313091.639893	2	1	0.852932	314092.824219	314092.816162	314963.523193	314963.520996	00020	m	1970-01	49.557534	0
56	1	0.653731	317477.742188	317477.739990	318147.643066	318147.642090	3	1	0.938948	319148.186279	319148.182129	320099.656006	320099.654297	00020	m	1970-01	49.557534	1
57	1	0.640253	322611.192139	322611.190186	323267.581299	323267.580078	2	1	0.998197	324269.059082	324269.046143	325275.631104	325275.629150	00020	m	1970-01	49.557534	1
58	1	0.520931	327794.593994	327794.592041	328331.670898	328331.668213	2	1	0.811475	329333.243164	329333.229980	330155.671143	330155.669189	00020	m	1970-01	49.557534	0
59	1	0.518228	332661.338135	332661.336182	333195.700195	333195.699219	3	1	0.984737	334196.217041	334196.215088	335195.668213	335195.666992	00020	m	1970-01	49.557534	1
60	1	0.412115	337711.395020	337711.393066	338139.665039	338139.664062	2	1	0.794962	339140.689209	339140.683105	339939.745117	339939.742920	00020	m	1970-01	49.557534	0
61	1	0.590735	342444.934082	342444.932129	343051.709229	343051.707031	2	1	0.846742	344052.812988	344052.805176	344907.819092	344907.816162	00020	m	1970-01	49.557534	1
62	1	0.440067	347412.265137	347412.263184	347867.781250	347867.779053	3	1	0.830095	348869.020264	348869.011230	349707.899170	349707.897217	00020	m	1970-01	49.557534	1
63	1	0.496070	352212.067139	352212.065186	352723.848145	352723.846191	2	1	0.851287	353725.336914	353725.324219	354595.854980	354595.853027	00020	m	1970-01	49.557534	1
64	1	0.492034	357111.707275	357111.705078	357619.864258	357619.862061	3	1	1.126850	358621.508057	358621.493164	359755.891113	359755.888184	00020	m	1970-01	49.557534	0
65	1	0.645920	362261.762207	362261.760010	362923.843994	362923.842285	2	1	1.418469	363924.918213	363924.911133	365347.915283	365347.913086	00020	m	1970-01	49.557534	1
66	1	0.565920	367861.843994	367861.842041	368443.915039	368443.914062	3	1	0.814522	369446.318115	369446.311035	370275.991211	370275.974121	00020	m	1970-01	49.557534	0
67	0	0.000000	385513.749023	385513.739990	0.000000	0.000000
68	2	0.323072	389528.861084	389528.859131	389868.050049	389868.049072	3	2	1.589642	390869.416016	390869.405029	392468.070068	392468.069092	00020	m	1970-01	49.557534	0
69	2	0.521059	394978.907959	394978.906250	395516.126221	395516.124023	2	2	1.003607	396516.982178	396516.977051	397532.116211	397532.114014	00020	m	1970-01	49.557534	1
70	2	2.222341	400045.666260	400045.664062	402284.148193	402284.145996	2	2	1.052915	403285.262939	403285.255127	404348.220947	404348.219238	00020	m	1970-01	49.557534	1
71	2	0.925665	406862.384033	406862.382080	407804.206055	407804.204102	3	2	0.967538	408805.318115	408805.310059	409780.294189	409780.288330	00020	m	1970-01	49.557534	0
72	2	1.004257	412295.800293	412295.798096	413316.206299	413316.204102	3	2	1.139486	414317.314209	414317.306885	415468.270996	415468.269043	00020	m	1970-01	49.557534	1
73	2	0.984891	417979.261230	417979.259033	418980.292969	418980.289307	3	2	1.608770	419981.501953	419981.494141	421604.308105	421604.307129	00020	m	1970-01	49.557534	0
74	2	0.987551	424112.687988	424112.686035	425116.388916	425116.387207	3	2	0.955380	426117.611084	426117.603027	427084.371094	427084.368164	00020	m	1970-01	49.557534	0
75	2	0.888120	429596.110107	429596.108154	430500.373047	430500.371094	2	2	1.132122	431500.851074	431500.848145	432644.495117	432644.477051	00020	m	1970-01	49.557534	1
76	2	0.905401	435162.917236	435162.915283	436084.392090	436084.390137	3	2	1.564659	437085.406982	437085.400146	438660.447021	438660.445312	00020	m	1970-01	49.557534	0
77	2	1.112792	441179.606201	441179.604004	442308.555176	442308.554199	3	2	1.034504	443309.569092	443309.562256	444348.430176	444348.427979	00020	m	1970-01	49.557534	0
78	2	1.109300	446862.986084	446862.984131	447988.432129	447988.431152	3	2	1.247460	448989.522217	448989.515137	450244.624023	450244.623291	00020	m	1970-01	49.557534	1
79	2	1.457310	452763.125244	452763.122070	454236.560059	454236.559082	2	2	0.854510	455237.701172	455237.693115	456100.562988	456100.561035	00020	m	1970-01	49.557534	1
80	2	1.047282	458613.203125	458613.201172	459676.624023	459676.622070	3	1	0.956560	460677.590088	460677.585205	461652.671143	461652.670166	00020	m	1970-01	49.557534	1
81	2	0.929183	464163.240234	464163.238037	465108.622070	465108.620117	3	1	0.722534	466109.760010	466109.753174	466836.631104	466836.613281	00020	m	1970-01	49.557534	0
82	2	1.009900	469346.651123	469346.649170	470372.702148	470372.700195	2	2	0.728566	471373.707031	471373.701172	472108.668945	472108.667236	00020	m	1970-01	49.557534	1
83	2	0.855087	474614.194092	474614.191895	475484.684326	475484.682129	3	2	1.028280	476485.796143	476485.789062	477524.651123	477524.649170	00020	m	1970-01	49.557534	0
84	2	1.070413	480030.320068	480030.318115	481116.722168	481116.721191	2	1	1.323034	482117.948975	482117.941162	483452.831055	483452.829102	00020	m	1970-01	49.557534	1
85	2	1.369106	485963.603027	485963.601074	487348.846191	487348.843994	2	1	0.809590	488349.940918	488349.933105	489172.795166	489172.794189	00020	m	1970-01	49.557534	1
86	2	1.124362	491680.349121	491680.347168	492820.856934	492820.856201	3	2	0.870268	493821.857178	493821.851074	494700.843018	494700.841064	00020	m	1970-01	49.557534	0
87	2	1.071126	497213.760986	497213.759277	498301.050293	498301.048096	2	2	1.171498	499302.685059	499302.673096	500484.867188	500484.865234	00020	m	1970-01	49.557534	1
88	2	0.935566	502997.162109	502997.160156	503948.869141	503948.867920	3	2	1.017400	504950.087158	504950.079102	505980.862061	505980.860107	00020	m	1970-01	49.557534	0
89	2	1.043495	508497.229004	508497.227295	509556.878174	509556.877197	3	2	0.935693	510557.967285	510557.958984	511500.936035	511500.934082	00020	m	1970-01	49.557534	0
90	2	1.470836	514014.006104	514014.004150	515500.963135	515500.961914	3	1	1.091377	516502.052002	516502.045166	517605.023193	517605.005127	00020	m	1970-01	49.557534	1
91	2	1.026739	520114.098145	520114.096191	521157.000000	521156.997314	3	1	0.680115	522158.010010	522158.003174	522845.029053	522845.028076	00020	m	1970-01	49.557534	1
92	2	1.104756	525364.160156	525364.158203	526485.048096	526485.047119	2	1	0.772018	527486.196045	527486.188232	528269.102051	528269.101074	00020	m	1970-01	49.557534	0
93	2	1.048044	530780.903076	530780.901123	531845.084229	531845.083008	3	2	0.621221	532846.097168	532846.090088	533485.062012	533485.060303	00020	m	1970-01	49.557534	0
94	2	0.991297	535997.632080	535997.630127	537005.080322	537005.079102	3	2	1.342193	538006.177246	538006.169189	539357.094971	539357.093994	00020	m	1970-01	49.557534	1
95	2	0.972575	541864.382080	541864.380127	542853.113281	542853.112305	3	2	0.829176	543854.118164	543854.111084	544693.191162	544693.189209	00020	m	1970-01	49.557534	0
96	2	1.079294	547198.649170	547198.646973	548293.295166	548293.294189	3	1	0.586559	549294.299072	549294.293213	549885.343018	549885.341064	00020	m	1970-01	49.557534	0
97	2	1.055180	552397.921143	552397.919189	553469.239014	553469.238037	3	2	1.180389	554470.393066	554470.382324	555661.266113	555661.265137	00020	m	1970-01	49.557534	1
98	2	1.264457	558166.529053	558166.527100	559445.280029	559445.279053	2	2	1.485085	560446.287109	560446.280029	561949.360107	561949.359131	00020	m	1970-01	49.557534	0
99	2	1.028403	564464.725098	564464.723145	565509.308105	565509.306152	2	2	1.026714	566509.822021	566509.820312	567541.364258	567541.362061	00020	m	1970-01	49.557534	1
100	2	0.989034	570048.171143	570048.169189	571053.355225	571053.353027	3	1	1.236982	572054.452148	572054.444092	573301.404053	573301.403076	00020	m	1970-01	49.557534	0
101	2	1.006360	575814.926025	575814.924072	576837.427246	576837.425293	3	1	0.597543	577838.522217	577838.514160	578445.417236	578445.415039	00020	m	1970-01	49.557534	1
102	2	1.216985	580949.694092	580949.691895	582181.434082	582181.433105	3	1	0.679516	583183.268066	583183.255127	583877.479004	583877.477051	00020	m	1970-01	49.557534	0
103	2	1.071594	586382.938232	586382.937256	587469.463135	587469.461182	2	2	1.012233	588470.547119	588470.540039	589493.585938	589493.585205	00020	m	1970-01	49.557534	0
104	2	1.095176	591998.928955	591998.927002	593109.810059	593109.808105	2	2	0.577697	594110.907959	594110.900146	594693.541016	594693.539062	00020	m	1970-01	49.557534	0
105	2	0.934800	597199.099121	597199.096191	598149.531006	598149.529297	3	1	0.616683	599149.948975	599149.946289	599781.532959	599781.531006	00020	m	1970-01	49.557534	1
106	2	0.410821	602298.608154	602298.606201	602725.600098	602725.597168	3	1	0.761785	603726.712158	603726.705078	604493.602051	604493.599121	00020	m	1970-01	49.557534	0
107	2	1.094835	606998.998047	606998.996094	608109.735107	608109.734131	2	1	1.065884	609110.747070	609110.740234	610181.824219	610181.822021	00020	m	1970-01	49.557534	1
108	2	1.042769	612698.819092	612698.816895	613757.718994	613757.718018	3	1	0.616272	614758.803223	614758.796143	615381.791992	615381.790039	00020	m	1970-01	49.557534	1
109	2	0.994686	617898.891113	617898.889160	618909.722168	618909.720215	3	1	0.682123	619910.816162	619910.809082	620597.780273	620597.779053	00020	m	1970-01	49.557534	1
110	2	1.042386	623115.634277	623115.632080	624174.168945	624174.167236	3	1	0.663772	625175.258057	625175.250000	625845.873047	625845.872070	00020	m	1970-01	49.557534	0
111	2	0.888681	628351.105225	628351.103027	629253.887207	629253.885010	3	2	0.796602	630254.966064	630254.958252	631061.924316	631061.923096	00020	m	1970-01	49.557534	1
112	2	0.567923	633566.279053	633566.277100	634149.857910	634149.856201	3	2	0.856492	635151.046143	635151.038086	636021.871094	636021.869141	00020	m	1970-01	49.557534	1
113	2	0.569176	638532.520996	638532.519043	639117.843994	639117.842285	3	2	0.609815	640118.286133	640118.284180	640741.904053	640741.903076	00020	m	1970-01	49.557534	1
114	2	0.580483	643249.255127	643249.252930	643845.885010	643845.884033	3	2	0.787931	644846.243164	644846.240967	645637.911133	645637.910156	00020	m	1970-01	49.557534	0
115	2	0.480463	648149.327148	648149.325195	648645.944092	648645.942139	3	1	1.100346	649647.041016	649647.034180	650765.947998	650765.946045	00020	m	1970-01	49.557534	1
116	2	0.563071	653282.730957	653282.729248	653861.955078	653861.954102	3	1	0.683004	654863.041992	654863.035156	655549.954102	655549.953125	00020	m	1970-01	49.557534	1
117	2	0.475671	658066.108154	658066.105225	658557.933105	658557.932129	2	1	0.728180	659559.023193	659559.016113	660293.990967	660293.990234	00020	m	1970-01	49.557534	1
118	2	1.182333	662799.552246	662799.550049	663998.020264	663998.019287	3	1	0.566212	665000.639160	665000.633057	665582.035889	665582.035156	00020	m	1970-01	49.557534	1
119	2	0.506355	668099.616943	668099.614990	668622.136963	668622.135254	3	1	0.781531	669623.334229	669623.326172	670414.079102	670414.077881	00020	m	1970-01	49.557534	0
120	2	0.504910	672933.034180	672933.033203	673454.099121	673454.096924	2	2	0.692186	674455.195068	674455.187012	675158.177246	675158.175293	00020	m	1970-01	49.557534	1
121	2	0.539589	677666.437988	677666.436279	678222.177002	678222.176025	3	2	0.877411	679223.280273	679223.272949	680110.145020	680110.144043	00020	m	1970-01	49.557534	1
122	2	0.461525	682616.531006	682616.528076	683094.186035	683094.184082	2	2	0.577898	684095.296143	684095.289307	684678.176270	684678.175293	00020	m	1970-01	49.557534	0
123	2	0.454802	687183.496094	687183.493164	687654.203125	687654.200928	3	1	1.268174	688654.749268	688654.747070	689934.332031	689934.331055	00020	m	1970-01	49.557534	0
124	2	0.692187	692449.993164	692449.991211	693158.320068	693158.319092	3	2	0.480008	694159.418213	694159.411133	694646.377197	694646.376221	00020	m	1970-01	49.557534	0
125	2	1.072136	697151.447998	697151.445068	698238.350098	698238.346924	3	1	0.980653	699239.461182	699239.454102	700230.312988	700230.312012	00020	m	1970-01	49.557534	0
126	2	0.496951	702735.538086	702735.536133	703246.589111	703246.586914	3	1	0.667920	704247.006104	704247.003906	704934.339111	704934.337158	00020	m	1970-01	49.557534	0
127	2	0.611989	707450.217041	707450.215088	708078.354980	708078.352295	2	2	0.522889	709079.447021	709079.440186	709606.380127	709606.378174	00020	m	1970-01	49.557534	1
128	2	0.513276	712116.945068	712116.943115	712646.376221	712646.374268	2	2	0.603832	713647.378174	713647.371094	714270.373047	714270.372070	00020	m	1970-01	49.557534	1
129	2	0.462591	716783.686035	716783.684082	717262.410156	717262.409180	2	2	0.794466	718263.523926	718263.516113	719062.421143	719062.420166	00020	m	1970-01	49.557534	0
130	2	0.487221	721567.825928	721567.824219	722070.453125	722070.452148	3	2	0.659101	723072.130127	723072.121094	723742.449951	723742.448975	00020	m	1970-01	49.557534	0
131	2	0.891847	726250.513184	726250.511230	727158.482910	727158.482178	2	2	0.614569	728159.582031	728159.575195	728782.536133	728782.534180	00020	m	1970-01	49.557534	1
132	2	0.569846	731300.631104	731300.629150	731886.552979	731886.552002	3	2	0.842445	732887.782959	732887.775146	733742.579102	733742.578125	00020	m	1970-01	49.557534	0
133	2	0.499765	736250.635986	736250.634277	736766.545898	736766.545166	3	2	0.911075	737769.128174	737769.112061	738694.681152	738694.678955	00020	m	1970-01	49.557534	0
134	2	1.540845	760418.759033	760418.750000	761974.757080	761974.756104	3	2	0.694336	762975.973145	762975.964111	763678.801025	763678.799072	00020	m	1970-01	49.557534	0
135	1	0.878198	766184.631104	766184.629150	767078.776123	767078.775146	2	1	1.329958	768079.866211	768079.859131	769414.808105	769414.806152	00020	m	1970-01	49.557534	0
136	1	0.672206	771934.513184	771934.511230	772622.842041	772622.840088	3	2	0.676770	773623.938965	773623.931152	774310.873047	774310.872070	00020	m	1970-01	49.557534	0
137	1	1.260800	776817.872070	776817.870117	778094.822266	778094.821289	3	1	1.400887	779095.746094	779095.739990	780502.968018	780502.967041	00020	m	1970-01	49.557534	1
138	1	0.764711	783017.965088	783017.964111	783798.828125	783798.826172	2	1	0.789282	784799.760986	784799.756104	785606.859131	785606.857910	00020	m	1970-01	49.557534	1
139	1	0.560666	788118.035156	788118.033203	788694.857178	788694.855225	2	1	1.008425	789695.948975	789695.941162	790710.897217	790710.895020	00020	m	1970-01	49.557534	0
140	1	0.604637	793218.144287	793218.142090	793838.931152	793838.930176	2	2	0.427844	794840.017090	794840.009277	795278.921143	795278.920166	00020	m	1970-01	49.557534	0
141	1	1.117935	797784.851074	797784.849121	798918.935059	798918.933105	2	1	0.888610	799920.146240	799920.137207	800823.114990	800823.100098	00020	m	1970-01	49.557534	0
142	2	0.679865	803334.968994	803334.967041	804030.989258	804030.986084	3	1	1.587337	805031.493164	805031.489990	806623.011963	806623.010986	00020	m	1970-01	49.557534	1
143	2	0.471929	809135.009033	809135.007080	809623.089111	809623.087158	3	1	0.844425	810624.642090	810624.630127	811479.093018	811479.091064	00020	m	1970-01	49.557534	1
144	2	0.485900	813985.114014	813985.112061	814487.145264	814487.144287	3	2	1.465759	815487.655273	815487.652100	816967.115234	816967.114258	00020	m	1970-01	49.557534	1
145	2	0.473824	819485.172119	819485.170166	819975.141113	819975.140137	3	2	0.838430	820976.232910	820976.225098	821823.243164	821823.242188	00020	m	1970-01	49.557534	0
146	2	0.447723	824335.249268	824335.247070	824799.117920	824799.116211	3	1	0.613042	825800.125000	825800.119141	826431.216064	826431.215088	00020	m	1970-01	49.557534	1
147	1	0.671729	828935.979004	828935.977295	829623.242188	829623.239014	3	2	1.892279	830624.398193	830624.390137	832527.253174	832527.250977	00020	m	1970-01	49.557534	1
148	1	0.771713	835035.419189	835035.416992	835823.275146	835823.273193	2	2	0.940261	836824.391113	836824.384277	837775.291260	837775.288086	00020	m	1970-01	49.557534	1
149	1	0.793642	840285.546143	840285.544189	841095.325195	841095.322998	2	1	0.711778	842096.447266	842096.439209	842815.338135	842815.337158	00020	m	1970-01	49.557534	0
150	1	0.664320	845319.699951	845319.697998	845999.386963	845999.385010	2	2	0.500919	847000.373047	847000.368164	847519.473145	847519.472168	00020	m	1970-01	49.557534	0
151	2	0.907610	850035.676025	850035.674072	850959.424072	850959.423096	2	2	0.790743	851960.622070	851960.614258	852759.388184	852759.386963	00020	m	1970-01	49.557534	0
152	2	0.658252	855269.088135	855269.086182	855943.483154	855943.482178	3	1	1.006914	856944.598145	856944.590088	857959.569092	857959.568115	00020	m	1970-01	49.557534	0
153	1	1.354182	860469.162109	860469.160156	861839.498047	861839.496094	2	2	0.683434	862840.979980	862840.968018	863535.583008	863535.580078	00020	m	1970-01	49.557534	0
154	1	0.578844	866052.619141	866052.616943	866647.608887	866647.607178	2	1	0.914684	867648.748047	867648.739990	868567.526123	868567.525146	00020	m	1970-01	49.557534	0
155	2	0.529334	871086.001221	871085.999023	871631.480225	871631.479004	3	2	0.698522	872632.629150	872632.622070	873335.606934	873335.606201	00020	m	1970-01	49.557534	0
156	1	1.226790	875852.780029	875852.778076	877095.709961	877095.708008	2	2	0.527790	878096.839111	878096.832031	878631.629150	878631.627930	00020	m	1970-01	49.557534	1
157	1	0.711349	881136.347900	881136.346191	881863.708008	881863.706055	2	2	0.721488	882865.063232	882865.052246	883591.698242	883591.696045	00020	m	1970-01	49.557534	1
158	2	1.008776	886102.930176	886102.928223	887127.870117	887127.868164	2	1	0.767820	888128.229248	888128.227051	888903.832275	888903.830078	00020	m	1970-01	49.557534	0
159	2	0.683929	891419.694092	891419.692139	892119.759033	892119.758057	3	1	0.927870	893120.999023	893120.991211	894063.837158	894063.836182	00020	m	1970-01	49.557534	1
160	1	0.613899	896569.776123	896569.774170	897199.816162	897199.814941	2	2	0.836575	898201.307129	898201.294189	899055.954102	899055.951172	00020	m	1970-01	49.557534	1
161	1	0.549843	901569.827148	901569.825195	902135.799072	902135.798096	2	2	1.183042	903138.134033	903138.126221	904335.813965	904335.812012	00020	m	1970-01	49.557534	0
162	2	0.786432	906853.236084	906853.234131	907655.811035	907655.810059	3	2	0.690355	908656.917969	908656.911133	909359.896240	909359.894043	00020	m	1970-01	49.557534	1
163	2	0.425829	911870.010986	911870.009277	912311.989990	912311.989014	2	2	0.711130	913313.098145	913313.090088	914032.062988	914032.062012	00020	m	1970-01	49.557534	0
164	1	1.335090	916537.737061	916537.735107	917888.015137	917888.013184	2	1	0.456974	918888.889160	918888.883057	919360.000977	919359.999268	00020	m	1970-01	49.557534	0
165	2	0.785722	921870.142334	921870.140137	922672.012939	922672.011963	2	1	0.785560	923673.108154	923673.101074	924471.967285	924471.965088	00020	m	1970-01	49.557534	1
166	2	0.500973	926986.893066	926986.891113	927503.998047	927503.996094	2	1	0.672246	928505.226074	928505.218018	929192.062012	929192.061279	00020	m	1970-01	49.557534	1
167	1	0.576390	931703.654053	931703.652100	932296.222168	932296.207275	2	2	0.519826	933297.216064	933297.208984	933824.104004	933824.102051	00020	m	1970-01	49.557534	1
168	2	0.518899	936337.070312	936337.068115	936872.112061	936872.110107	3	1	0.673510	937873.346924	937873.339111	938560.169189	938560.167969	00020	m	1970-01	49.557534	0
169	2	0.457525	941070.475098	941070.473145	941544.150146	941544.149170	3	2	0.726744	942545.390137	942545.382080	943280.187988	943280.186279	00020	m	1970-01	49.557534	0
170	2	0.972762	945787.183105	945787.181152	946776.208252	946776.207275	2	1	0.605436	947777.310059	947777.303223	948392.226318	948392.224121	00020	m	1970-01	49.557534	0
171	2	0.640122	950903.963135	950903.961182	951560.231201	951560.229004	3	2	0.590021	952561.441162	952561.432129	953160.246094	953160.245117	00020	m	1970-01	49.557534	0
172	2	0.425406	955670.702148	955670.699951	956112.265137	956112.264160	3	1	0.584068	957113.508301	957113.500000	957704.393066	957704.391113	00020	m	1970-01	49.557534	1
173	2	0.483468	960220.749023	960220.747070	960720.423096	960720.421143	2	1	0.799243	961722.081055	961722.072998	962536.302002	962536.301025	00020	m	1970-01	49.557534	0
174	2	0.537961	965054.184082	965054.182129	965608.302979	965608.302002	3	1	0.691901	966609.491211	966609.482910	967312.380127	967312.379150	00020	m	1970-01	49.557534	0
175	1	0.171350	969820.933105	969820.931152	970008.431152	970008.429932	3	1	0.643979	971009.644043	971009.636230	971664.520020	971664.518066	00020	m	1970-01	49.557534	1
176	1	0.541261	974171.006104	974171.004150	974728.408936	974728.407227	2	1	0.575281	975729.618896	975729.610107	976312.554199	976312.552246	00020	m	1970-01	49.557534	1
177	1	0.819346	978821.080078	978821.078125	979656.567139	979656.565186	2	1	0.625779	980657.776123	980657.768066	981296.472168	981296.470215	00020	m	1970-01	49.557534	1
178	2	2.219811	983804.496094	983804.494141	986040.446045	986040.445068	3	2	0.506414	987041.547119	987041.540039	987560.545166	987560.543945	00020	m	1970-01	49.557534	1
179	2	0.465162	990071.262207	990071.260254	990552.558105	990552.555908	3	2	0.573686	991556.331055	991556.314209	992144.566895	992144.565186	00020	m	1970-01	49.557534	0
180	2	0.545793	994654.657227	994654.655273	995216.615234	995216.614014	3	1	0.554201	996218.070068	996218.057129	996776.737305	996776.735107	00020	m	1970-01	49.557534	1
181	1	0.520411	999288.069092	999288.067139	999824.624023	999824.622070	3	2	1.195032	1000826.244141	1000826.229980	1002032.684082	1002032.683105	00020	m	1970-01	49.557534	0
182	1	0.582438	1004538.153076	1004538.151123	1005136.728027	1005136.727051	3	1	0.478244	1006139.453125	1006139.444092	1006632.688965	1006632.687012	00020	m	1970-01	49.557534	1
183	1	0.574295	1009138.208984	1009138.207275	1009728.666016	1009728.664062	3	1	0.638729	1010729.895020	1010729.886963	1011376.713135	1011376.711182	00020	m	1970-01	49.557534	0
184	1	0.896303	1013888.300049	1013888.296143	1014800.746094	1014800.745117	2	2	1.170879	1015801.845947	1015801.839111	1016976.755127	1016976.752930	00020	m	1970-01	49.557534	0
185	2	1.152256	1019488.354248	1019488.352051	1020656.751221	1020656.749023	3	2	0.665614	1021658.203125	1021658.188965	1022336.947266	1022336.946045	00020	m	1970-01	49.557534	1
186	2	0.497602	1024855.126221	1024855.124023	1025368.882080	1025368.881104	3	2	0.636792	1026369.966064	1026369.958252	1027024.856201	1027024.855225	00020	m	1970-01	49.557534	1
187	2	0.470279	1029538.538330	1029538.536133	1030024.979980	1030024.978271	3	2	0.714725	1031026.178223	1031026.169922	1031752.883301	1031752.881104	00020	m	1970-01	49.557534	0
188	1	0.736821	1034271.937988	1034271.936279	1035024.917969	1035024.916260	3	1	0.794740	1036026.122070	1036026.114258	1036832.960205	1036832.959229	00020	m	1970-01	49.557534	0
189	1	0.542118	1039338.690918	1039338.688965	1039896.976074	1039896.974121	2	2	0.486630	1040897.974121	1040897.968018	1041392.915039	1041392.914062	00020	m	1970-01	49.557534	0
190	2	0.447603	1043905.405029	1043905.403076	1044369.164307	1044369.163086	3	2	1.084670	1045370.255127	1045370.248047	1046473.052002	1046473.051025	00020	m	1970-01	49.557534	0
191	2	0.476026	1048988.835938	1048988.834229	1049481.029053	1049481.027100	3	1	0.510938	1050482.499023	1050482.486084	1051001.011963	1051001.009277	00020	m	1970-01	49.557534	0
192	1	0.479327	1053506.772949	1053506.770996	1054001.053955	1054001.052246	2	1	0.602639	1055002.510986	1055002.498047	1055609.080078	1055609.079102	00020	m	1970-01	49.557534	1
193	1	0.534585	1058122.318115	1058122.316162	1058673.054199	1058673.052002	2	1	0.760595	1059674.651123	1059674.636963	1060449.192871	1060449.192139	00020	m	1970-01	49.557534	1
194	1	0.645224	1062955.722168	1062955.720215	1063617.097168	1063617.095215	2	1	0.778523	1064618.561035	1064618.549072	1065401.175049	1065401.172119	00020	m	1970-01	49.557534	1
195	1	0.535202	1067906.685059	1067906.681885	1068457.156250	1068457.155273	2	1	0.673077	1069458.249023	1069458.242188	1070145.146973	1070145.145264	00020	m	1970-01	49.557534	1
196	1	0.513174	1072655.846191	1072655.844238	1073185.187012	1073185.185303	2	1	0.843151	1074186.272217	1074186.263916	1075033.223145	1075033.222168	00020	m	1970-01	49.557534	1
197	1	0.693811	1077539.270264	1077539.268066	1078249.217041	1078249.216064	3	1	0.729616	1079250.296143	1079250.289307	1079985.221191	1079985.220215	00020	m	1970-01	49.557534	0
198	1	0.759833	1082490.678955	1082490.676270	1083265.375977	1083265.374268	2	2	0.455522	1084266.470215	1084266.463135	1084729.405273	1084729.404297	00020	m	1970-01	49.557534	1
199	1	0.497873	1087239.400146	1087239.397949	1087753.426025	1087753.425049	3	2	0.821002	1088754.509277	1088754.501953	1089593.347900	1089593.347168	00020	m	1970-01	49.557534	1
200	1	0.583051	1092106.188965	1092106.187012	1092705.415039	1092705.414062	3	2	0.318934	1093707.500244	1093707.492188	1094041.393066	1094041.391113	00020	m	1970-01	49.557534	0