
trial	choice1	rts1	stim1ons_sl	stim1ons_ms	choice1ons_sl	choice1ons_ms	state	choice2	rts2	stim2ons_sl	stim2ons_ms	choice2ons_sl	choice2ons_ms	SC_ID	gender	DOB	age	won

1	2	0.491347	147.007812	147.004883	652.500977	652.499023	2	1	0.581721	1656.320801	1656.304932	2259.533936	2259.531982	00003	f	1970-01	49.460502	1
2	2	0.393070	4778.281006	4778.277832	5187.593994	5187.592041	3	1	0.161074	6190.006104	6189.997070	6355.629883	6355.627930	00003	f	1970-01	49.460502	0
3	2	0.493659	8861.637939	8861.635986	9371.572998	9371.570801	3	2	0.489635	10373.791992	10373.783936	10867.583008	10867.581787	00003	f	1970-01	49.460502	1
4	2	0.457017	13378.392090	13378.389893	13851.653809	13851.652832	3	2	0.358355	14853.812012	14853.802979	15219.681885	15219.680908	00003	f	1970-01	49.460502	0
5	2	0.338891	17729.167969	17729.164795	18083.595947	18083.593750	3	2	0.332403	19093.149902	19093.133057	19443.806885	19443.804932	00003	f	1970-01	49.460502	0
6	1	0.489571	21961.820801	21961.818848	22467.667725	22467.666016	2	2	0.533657	23469.548828	23469.539795	24011.773926	24011.772949	00003	f	1970-01	49.460502	0
7	1	0.363057	26528.426025	26528.424072	26907.882812	26907.881104	3	2	0.427478	27909.607910	27909.600098	28355.671875	28355.669922	00003	f	1970-01	49.460502	0
8	1	0.477543	30861.875977	30861.873779	31355.784912	31355.782959	2	1	0.386163	32357.662842	32357.646973	32747.743896	32747.741943	00003	f	1970-01	49.460502	0
9	2	0.309393	35262.012939	35262.010742	35587.692871	35587.690918	3	2	0.256749	36589.396973	36589.388916	36851.722900	36851.719727	00003	f	1970-01	49.460502	0
10	1	0.897412	39361.925781	39361.923828	40275.770020	40275.769043	2	1	0.356790	41276.966797	41276.959961	41651.830811	41651.829102	00003	f	1970-01	49.460502	1
11	1	0.873441	44161.992920	44161.990967	45051.875732	45051.874023	3	1	0.486042	46053.114014	46053.105713	46547.820801	46547.818848	00003	f	1970-01	49.460502	1
12	1	0.333636	49062.058838	49062.057129	49412.122070	49412.118896	2	1	0.503583	50414.093018	50414.083984	50932.113770	50932.111084	00003	f	1970-01	49.460502	0
13	1	0.366160	53445.468018	53445.466064	53828.020752	53828.018799	2	1	0.334738	54830.428711	54830.419922	55179.994873	55179.992920	00003	f	1970-01	49.460502	0
14	1	0.364025	57695.537842	57695.535889	58075.966797	58075.964844	2	2	0.356598	59077.212891	59077.204102	59451.899902	59451.898926	00003	f	1970-01	49.460502	1
15	1	0.337367	61962.244141	61962.240967	62316.017822	62316.016846	2	2	0.355307	63317.716797	63317.700928	63683.998779	63683.996826	00003	f	1970-01	49.460502	1
16	1	0.352174	66195.657959	66195.655762	66564.210938	66564.208984	3	2	0.449330	67564.697021	67564.693848	68028.071777	68028.070068	00003	f	1970-01	49.460502	0
17	1	0.473895	70545.686035	70545.683838	71036.052979	71036.036865	2	2	0.454655	72037.285889	72037.277832	72500.101807	72500.100830	00003	f	1970-01	49.460502	0
18	1	0.591292	75012.419922	75012.417969	75620.123779	75620.121826	2	1	0.743187	76621.386963	76621.378906	77372.025879	77372.024902	00003	f	1970-01	49.460502	1
19	1	0.812534	79879.165771	79879.163086	80708.138916	80708.136963	2	1	0.507957	81709.397949	81709.388916	82220.207031	82220.192871	00003	f	1970-01	49.460502	1
20	1	0.522369	84729.250000	84729.246826	85268.014893	85268.012939	2	1	0.453439	86269.237061	86269.228027	86732.415039	86732.414062	00003	f	1970-01	49.460502	1
21	1	0.422006	89245.917969	89245.915771	89684.374756	89684.372803	2	1	0.388554	90685.468018	90685.459961	91084.282959	91084.281006	00003	f	1970-01	49.460502	1
22	1	0.511777	93596.096924	93596.094727	94124.202881	94124.199951	2	1	0.435144	95125.432861	95125.424805	95564.239990	95564.237793	00003	f	1970-01	49.460502	1
23	1	0.484435	98079.398926	98079.395996	98580.237793	98580.236816	2	1	0.456425	99580.749023	99580.746826	100052.254883	100052.253906	00003	f	1970-01	49.460502	1
24	1	0.408941	102562.799072	102562.796875	102988.163086	102988.162109	2	1	0.464491	103989.370850	103989.363037	104460.375977	104460.373779	00003	f	1970-01	49.460502	0
25	1	0.464530	106979.538818	106979.537109	107460.474854	107460.472900	2	2	0.397035	108461.583008	108461.574951	108876.350830	108876.347900	00003	f	1970-01	49.460502	1
26	1	0.536266	111379.581055	111379.578857	111932.270996	111932.255859	3	2	1.274248	112933.969971	112933.954834	114220.282959	114220.281738	00003	f	1970-01	49.460502	0
27	1	0.514172	116729.632812	116729.630859	117260.243896	117260.241943	3	2	0.564906	118261.380859	118261.372803	118844.329834	118844.327881	00003	f	1970-01	49.460502	0
28	1	0.385109	121363.036865	121363.033936	121764.602051	121764.600098	2	1	1.160830	122765.709961	122765.702881	123940.317871	123940.315918	00003	f	1970-01	49.460502	1
29	1	0.821407	126446.462891	126446.460938	127284.287842	127284.286133	2	1	0.588167	128285.835938	128285.822021	128884.389893	128884.388916	00003	f	1970-01	49.460502	1
30	1	1.087510	131396.534912	131396.532959	132500.453857	132500.452881	2	1	0.331528	133501.670898	133501.662842	133844.500977	133844.498779	00003	f	1970-01	49.460502	1
31	1	0.569322	136346.679932	136346.677979	136932.359863	136932.358887	2	1	0.418180	137933.588135	137933.578857	138364.534912	138364.533936	00003	f	1970-01	49.460502	0
32	2	0.612101	140879.989014	140879.987061	141508.523926	141508.509766	2	1	0.499699	142509.615967	142509.608887	143012.812012	143012.810059	00003	f	1970-01	49.460502	1
33	2	0.505924	145530.102051	145530.099854	146052.405762	146052.404785	2	1	0.445405	147053.624023	147053.615723	147508.569092	147508.566895	00003	f	1970-01	49.460502	0
34	2	0.574641	150013.481934	150013.479980	150604.507812	150604.506104	3	1	0.719359	151605.689941	151605.681885	152332.578857	152332.577881	00003	f	1970-01	49.460502	1
35	2	0.509283	154846.855957	154846.854004	155372.541992	155372.541016	3	1	0.488673	156373.428711	156373.423828	156868.633057	156868.630859	00003	f	1970-01	49.460502	0
36	2	0.983931	159380.254883	159380.252930	160380.609131	160380.606934	3	2	0.672032	161381.892822	161381.883789	162068.729004	162068.727051	00003	f	1970-01	49.460502	1
37	1	0.479854	164580.332031	164580.329834	165076.596924	165076.593750	3	2	1.171927	166078.132812	166078.119873	167268.684814	167268.683838	00003	f	1970-01	49.460502	1
38	1	0.479821	169780.416016	169780.413818	170276.633057	170276.630859	3	2	0.459796	171278.173828	171278.160889	171756.631836	171756.628906	00003	f	1970-01	49.460502	0
39	2	0.940611	174263.835938	174263.833984	175220.836914	175220.833984	3	1	0.638570	176221.967041	176221.959717	176868.801758	176868.799805	00003	f	1970-01	49.460502	1
40	2	0.495719	179380.538086	179380.534912	179892.646973	179892.644775	3	1	0.403853	180893.770996	180893.762695	181300.804932	181300.802979	00003	f	1970-01	49.460502	0
41	2	0.414411	183813.938965	183813.937012	184244.748779	184244.745850	2	2	0.397006	185245.613770	185245.607910	185660.682861	185660.680908	00003	f	1970-01	49.460502	1
42	1	0.544449	188164.026855	188164.023926	188724.850830	188724.849854	2	2	0.682498	189725.978760	189725.970947	190412.916016	190412.914062	00003	f	1970-01	49.460502	1
43	1	0.449744	192930.790039	192930.786865	193396.880859	193396.878906	3	2	0.415041	194398.701904	194398.692871	194828.863770	194828.862061	00003	f	1970-01	49.460502	0
44	1	1.041036	197347.476074	197347.472900	198404.895996	198404.894775	2	2	0.958976	199406.021729	199406.013916	200372.869873	200372.868896	00003	f	1970-01	49.460502	1
45	1	0.675730	202880.856934	202880.854736	203572.992920	203572.991943	2	2	0.608301	204574.097900	204574.090088	205188.936035	205188.935059	00003	f	1970-01	49.460502	1
46	1	0.539007	207697.586914	207697.584961	208253.021973	208253.018799	2	2	0.404980	209254.217773	209254.208984	209669.008057	209669.004883	00003	f	1970-01	49.460502	0
47	2	0.559439	212180.958984	212180.955811	212756.855957	212756.854980	3	1	0.600918	213758.181885	213758.173096	214365.011963	214365.010986	00003	f	1970-01	49.460502	0
48	2	0.459515	216881.027832	216881.026123	217356.978027	217356.976074	3	2	0.376949	218358.239990	218358.230713	218741.107910	218741.104736	00003	f	1970-01	49.460502	0
49	1	0.884985	221247.778809	221247.776123	222149.199951	222149.197754	2	2	0.952928	223150.408936	223150.400879	224117.142822	224117.141113	00003	f	1970-01	49.460502	0
50	1	0.509379	226631.155029	226631.152832	227156.991943	227156.989746	2	1	0.480771	228158.205078	228158.197021	228645.062012	228645.058838	00003	f	1970-01	49.460502	1
51	1	0.448692	231147.913818	231147.912109	231613.018066	231613.016846	2	1	0.438076	232615.940918	232615.932861	233069.110840	233069.108887	00003	f	1970-01	49.460502	1
52	1	0.559388	235581.310059	235581.307861	236157.130859	236157.128906	2	1	0.440827	237158.395996	237158.386963	237605.231934	237605.229736	00003	f	1970-01	49.460502	0
53	1	0.418174	240114.707031	240114.704834	240549.333740	240549.331787	3	2	1.032831	241550.547852	241550.540039	242597.314941	242597.312988	00003	f	1970-01	49.460502	0
54	1	0.353977	245114.748047	245114.745850	245485.173096	245485.170898	2	2	0.939496	246486.367920	246486.359863	247437.385986	247437.383789	00003	f	1970-01	49.460502	0
55	1	0.480561	249948.185059	249948.182861	250445.169922	250445.168945	2	1	0.445367	251445.561035	251445.557861	251893.314941	251893.312988	00003	f	1970-01	49.460502	1
56	1	0.846601	254398.238037	254398.236084	255261.301025	255261.298828	3	1	1.252488	256262.423096	256262.415771	257517.203857	257517.200928	00003	f	1970-01	49.460502	0
57	1	0.421178	260031.668945	260031.666016	260469.295898	260469.292969	3	2	0.435935	261470.518799	261470.510986	261917.362061	261917.361084	00003	f	1970-01	49.460502	0
58	1	0.349341	264431.747070	264431.744873	264797.483887	264797.481934	2	2	0.870563	265799.819092	265799.809814	266685.381836	266685.380859	00003	f	1970-01	49.460502	1
59	1	0.542506	269198.470703	269198.468994	269757.370850	269757.369141	3	1	1.056517	270758.579102	270758.570801	271821.405029	271821.403076	00003	f	1970-01	49.460502	0
60	1	0.353026	274331.886963	274331.883789	274701.298096	274701.294922	3	2	0.466470	275701.830811	275701.827881	276181.421875	276181.419922	00003	f	1970-01	49.460502	0
61	1	0.386464	278698.586914	278698.583740	279101.456787	279101.455811	2	1	0.610496	280102.749756	280102.740967	280725.505859	280725.503906	00003	f	1970-01	49.460502	1
62	1	0.381164	283231.970947	283231.968750	283629.559082	283629.557861	2	1	0.540998	284630.509766	284630.504883	285189.409912	285189.407715	00003	f	1970-01	49.460502	1
63	1	0.362346	287698.707764	287698.705811	288077.469727	288077.468018	2	1	0.355664	289078.556885	289078.548828	289437.503906	289437.501953	00003	f	1970-01	49.460502	0
64	2	0.376373	291948.763916	291948.761963	292341.562012	292341.560791	2	1	0.905060	293342.784912	293342.777100	294253.597900	294253.595703	00003	f	1970-01	49.460502	1
65	2	0.351632	296765.500977	296765.498779	297133.554932	297133.552979	3	2	0.688944	298134.742920	298134.734863	298837.572754	298837.571777	00003	f	1970-01	49.460502	0
66	2	0.424341	301348.894775	301348.891846	301789.642822	301789.640869	2	2	0.719016	302790.825928	302790.817871	303517.674072	303517.671875	00003	f	1970-01	49.460502	1
67	2	0.825407	313117.407959	313117.398926	313957.572021	313957.571045	3	2	0.880307	314958.064941	314958.062012	315845.825928	315845.822754	00003	f	1970-01	49.460502	1
68	2	0.416081	318349.137939	318349.135986	318781.637939	318781.635986	3	2	0.390794	319783.808105	319783.798828	320189.705811	320189.703857	00003	f	1970-01	49.460502	0
69	2	0.570021	322699.168945	322699.166992	323285.672852	323285.671875	2	2	0.498818	324286.940918	324286.930908	324797.783936	324797.781982	00003	f	1970-01	49.460502	1
70	2	0.473530	327315.958008	327315.955811	327805.898926	327805.896973	3	1	0.646047	328807.190918	328807.181885	329461.753906	329461.751953	00003	f	1970-01	49.460502	1
71	2	0.415307	331966.021973	331966.019775	332397.740723	332397.739990	3	1	0.461939	333400.702881	333400.693848	333877.701904	333877.699951	00003	f	1970-01	49.460502	0
72	2	0.382602	336382.726807	336382.723877	336781.743896	336781.740967	2	2	0.526688	337784.046875	337784.039062	338325.845947	338325.844971	00003	f	1970-01	49.460502	1
73	2	0.300566	340832.808105	340832.805908	341149.781006	341149.778809	3	1	0.536059	342150.982910	342150.974121	342701.940918	342701.939697	00003	f	1970-01	49.460502	0
74	2	0.373381	345216.181885	345216.179932	345606.003906	345606.001953	3	2	0.717872	346606.375977	346606.372803	347333.834961	347333.833008	00003	f	1970-01	49.460502	0
75	1	0.379905	349849.598877	349849.596924	350245.918945	350245.916748	2	2	0.428022	351247.388916	351247.375000	351694.041016	351694.039795	00003	f	1970-01	49.460502	1
76	1	0.309974	354199.656982	354199.654785	354526.031982	354526.029785	3	1	0.673210	355527.273926	355527.266113	356205.957764	356205.956055	00003	f	1970-01	49.460502	0
77	1	0.425546	358716.372070	358716.369873	359158.345947	359158.343994	3	2	0.439888	360158.730957	360158.727783	360606.064941	360606.062988	00003	f	1970-01	49.460502	0
78	2	0.697075	363116.437988	363116.434814	363829.921875	363829.920898	2	2	0.740417	364831.183838	364831.176025	365589.977051	365589.975830	00003	f	1970-01	49.460502	1
79	2	0.377891	368099.834961	368099.833008	368494.145752	368494.144043	3	1	0.722375	369495.242920	369495.234863	370221.993896	370221.991943	00003	f	1970-01	49.460502	1
80	2	0.464447	372733.235840	372733.233887	373214.104004	373214.102051	2	2	0.525136	374215.205811	374215.197998	374758.138916	374758.137939	00003	f	1970-01	49.460502	0
81	2	0.371060	377266.652832	377266.650879	377654.098145	377654.095947	3	1	0.475749	378655.321777	378655.312988	379142.151855	379142.149902	00003	f	1970-01	49.460502	1
82	2	0.275595	381650.141113	381650.138916	381942.024902	381942.022949	3	1	0.608329	382943.263916	382943.254883	383558.121826	383558.118896	00003	f	1970-01	49.460502	0
83	2	0.330975	386066.867920	386066.865967	386414.140869	386414.137939	3	2	0.492898	387415.285889	387415.277832	387926.103760	387926.102783	00003	f	1970-01	49.460502	0
84	2	0.452233	390433.517090	390433.514893	390902.124023	390902.123047	3	1	0.464970	391918.116699	391918.108887	392398.227051	392398.226074	00003	f	1970-01	49.460502	1
85	2	0.360781	394916.884033	394916.882080	395294.075928	395294.072754	3	1	0.514213	396295.176025	396295.168945	396814.188965	396814.187988	00003	f	1970-01	49.460502	1
86	2	0.496764	399316.974854	399316.971924	399830.118896	399830.116943	3	1	0.428171	400831.201904	400831.194824	401278.230957	401278.227783	00003	f	1970-01	49.460502	1
87	2	0.358091	403783.678955	403783.675781	404158.187012	404158.185059	3	1	0.559505	405159.449707	405159.441895	405726.270020	405726.269043	00003	f	1970-01	49.460502	0
88	1	0.308057	408233.771973	408233.769775	408558.216797	408558.214844	2	2	0.399380	409558.722900	409558.719971	409966.226807	409966.225830	00003	f	1970-01	49.460502	0
89	1	0.338111	412483.793945	412483.791748	412838.315918	412838.313721	2	1	0.364012	413839.541992	413839.533691	414214.249756	414214.248779	00003	f	1970-01	49.460502	1
90	1	0.464733	416717.189941	416717.187988	417198.326904	417198.325928	2	1	0.397360	418199.592773	418199.583984	418614.331055	418614.329834	00003	f	1970-01	49.460502	0
91	1	0.471930	421134.021973	421134.019775	421622.278076	421622.277100	2	1	0.380614	422623.437012	422623.428711	423014.303955	423014.302979	00003	f	1970-01	49.460502	1
92	1	0.424724	425517.306885	425517.304932	425958.458008	425958.456055	2	1	0.455315	426959.695801	426959.687012	427422.403809	427422.401855	00003	f	1970-01	49.460502	1
93	1	0.376278	429934.048828	429934.045898	430326.757812	430326.753906	2	1	0.360713	431328.037109	431328.028809	431694.541992	431694.540039	00003	f	1970-01	49.460502	1
94	1	0.549260	434200.733887	434200.731934	434766.482910	434766.466797	2	1	0.446566	435768.661865	435768.653809	436230.440918	436230.438965	00003	f	1970-01	49.460502	1
95	1	0.383939	438734.131836	438734.129883	439134.562988	439134.560791	3	2	0.455824	440135.787842	440135.778809	440606.468994	440606.467041	00003	f	1970-01	49.460502	0
96	1	0.320551	443117.568115	443117.565918	443454.540039	443454.538818	2	1	0.307143	444455.739990	444455.730957	444774.516846	444774.514893	00003	f	1970-01	49.460502	1
97	1	0.433906	447284.286133	447284.283936	447734.599854	447734.597900	2	1	0.407952	448735.869873	448735.860840	449158.681885	449158.679932	00003	f	1970-01	49.460502	0
98	2	0.386544	451667.680908	451667.678711	452070.643799	452070.641113	2	1	0.442556	453071.873779	453071.864746	453526.708740	453526.707031	00003	f	1970-01	49.460502	1
99	2	0.299704	456034.407959	456034.406006	456350.535889	456350.533936	3	1	0.431037	457352.450928	457352.441895	457798.553955	457798.550781	00003	f	1970-01	49.460502	1
100	2	0.376437	460317.802979	460317.801025	460710.659912	460710.658936	3	1	0.393095	461711.958984	461711.950928	462110.669922	462110.668945	00003	f	1970-01	49.460502	1
101	2	0.292294	464617.866943	464617.864746	464926.576904	464926.574951	3	1	0.368434	465927.830078	465927.821777	466302.730957	466302.729736	00003	f	1970-01	49.460502	1
102	2	0.372306	468817.928955	468817.926758	469206.645020	469206.642822	3	1	0.525011	470207.897949	470207.890137	470742.697021	470742.694824	00003	f	1970-01	49.460502	1
103	2	0.346989	473251.340820	473251.337891	473614.739990	473614.739014	3	1	0.396986	474615.286865	474615.283936	475014.755859	475014.752930	00003	f	1970-01	49.460502	1
104	2	0.352559	477518.042969	477518.040771	477887.043945	477887.040771	3	1	0.497715	478888.224854	478888.216064	479398.888916	479398.887939	00003	f	1970-01	49.460502	1
105	2	0.320315	481918.108887	481918.105713	482254.858887	482254.856934	3	1	0.426908	483256.062988	483256.054932	483694.792969	483694.790771	00003	f	1970-01	49.460502	0
106	2	0.396952	486201.500000	486201.498047	486614.888916	486614.887939	2	2	1.156343	487616.200928	487616.194092	488790.948975	488790.947021	00003	f	1970-01	49.460502	0
107	2	0.264837	491301.584961	491301.582764	491582.847900	491582.846924	3	1	0.637585	492583.935059	492583.927979	493238.937012	493238.935059	00003	f	1970-01	49.460502	1
108	2	0.310857	495751.636963	495751.633789	496078.934814	496078.933105	2	2	0.938167	497080.023926	497080.016846	498022.917969	498022.914795	00003	f	1970-01	49.460502	1
109	2	0.319328	500535.142822	500535.140869	500870.798828	500870.797852	3	1	0.474092	501872.309814	501872.296875	502358.891113	502358.888916	00003	f	1970-01	49.460502	0
110	2	0.370124	504868.436768	504868.434814	505254.979004	505254.977051	3	1	0.586717	506256.660889	506256.646973	506854.929932	506854.927979	00003	f	1970-01	49.460502	1
111	2	0.342246	509368.514893	509368.512939	509727.152832	509727.151855	3	1	0.480150	510728.261963	510728.253906	511215.087891	511215.084961	00003	f	1970-01	49.460502	1
112	2	0.296116	513718.565918	513718.563965	514031.091797	514031.091064	3	1	0.404067	515031.463867	515031.461914	515439.080078	515439.075928	00003	f	1970-01	49.460502	1
113	2	0.334772	517951.984863	517951.981934	518303.137939	518303.135742	2	2	0.536570	519304.406982	519304.398926	519854.964844	519854.961914	00003	f	1970-01	49.460502	0
114	2	0.285886	522368.699951	522368.697754	522670.984863	522670.981934	2	1	0.513907	523672.184082	523672.175781	524199.033936	524199.030762	00003	f	1970-01	49.460502	0
115	2	0.384631	526702.074951	526702.072754	527103.130859	527103.127930	2	1	0.424610	528103.632080	528103.628906	528543.155029	528543.151855	00003	f	1970-01	49.460502	1
116	2	0.330477	531052.156006	531052.152832	531399.047852	531399.045898	3	1	0.716623	532400.117920	532400.110107	533135.305908	533135.302979	00003	f	1970-01	49.460502	1
117	2	0.738557	535652.200928	535652.198975	536407.204834	536407.202881	2	1	0.380572	537407.604004	537407.601807	537799.206055	537799.204834	00003	f	1970-01	49.460502	0
118	2	0.392544	540302.269043	540302.266846	540711.241943	540711.240967	3	1	0.456568	541712.486084	541712.477051	542175.284912	542175.282959	00003	f	1970-01	49.460502	1
119	2	0.321433	544685.750000	544685.747803	545023.562988	545023.561035	3	1	0.411947	546024.744141	546024.735840	546447.372070	546447.369873	00003	f	1970-01	49.460502	0
120	2	0.334572	548952.390869	548952.387695	549303.379883	549303.377930	2	2	0.392523	550304.560059	550304.550781	550711.355957	550711.354980	00003	f	1970-01	49.460502	1
121	2	0.307690	553219.141113	553219.138916	553543.230957	553543.228760	3	1	0.439008	554544.423828	554544.416992	554991.222900	554991.220947	00003	f	1970-01	49.460502	1
122	2	0.344337	557502.529785	557502.525879	557863.260986	557863.260010	3	1	0.450289	558864.455811	558864.448975	559319.236084	559319.234863	00003	f	1970-01	49.460502	0
123	2	0.339075	561835.906982	561835.904785	562191.400879	562191.397949	2	2	0.484937	563192.628906	563192.620117	563687.279053	563687.276855	00003	f	1970-01	49.460502	0
124	2	0.332297	566202.632812	566202.631104	566551.380859	566551.378906	2	2	0.406345	567554.060059	567554.051025	567975.411865	567975.409912	00003	f	1970-01	49.460502	0
125	2	0.321170	570486.030762	570486.028809	570823.624756	570823.623047	2	1	0.475730	571824.832031	571824.823730	572311.531982	572311.529785	00003	f	1970-01	49.460502	0
126	2	0.339634	574819.432129	574819.428955	575175.487061	575175.483887	3	1	1.037659	576176.616943	576176.609131	577223.542969	577223.539795	00003	f	1970-01	49.460502	1
127	2	0.294930	579736.160889	579736.157959	580047.513916	580047.510742	2	2	0.906809	581048.614990	581048.606934	581959.408936	581959.406738	00003	f	1970-01	49.460502	1
128	2	0.297420	584469.561768	584469.559814	584783.397949	584783.396973	3	1	0.452809	585787.426025	585787.417969	586255.480957	586255.478760	00003	f	1970-01	49.460502	1
129	2	0.421505	588769.624023	588769.620850	589207.543945	589207.541992	2	2	0.636089	590208.734863	590208.726807	590855.475830	590855.473877	00003	f	1970-01	49.460502	1
130	2	0.485399	593369.685791	593369.684082	593871.492920	593871.490967	3	1	0.433368	594872.696777	594872.688965	595319.505859	595319.503906	00003	f	1970-01	49.460502	1
131	2	0.330737	597836.465820	597836.463867	598183.576904	598183.574951	3	1	0.484695	599184.674072	599184.666016	599687.546875	599687.543945	00003	f	1970-01	49.460502	0
132	2	0.324013	602203.163818	602203.160889	602543.594727	602543.592041	3	1	0.710710	603544.815918	603544.807861	604263.630859	604263.628906	00003	f	1970-01	49.460502	0
133	2	0.269407	606770.010986	606770.007812	607055.698975	607055.697021	2	2	0.969897	608057.218994	608057.205811	609039.542969	609039.541992	00003	f	1970-01	49.460502	0
134	1	0.635347	617421.199951	617421.188721	618071.791992	618071.791016	3	2	0.401208	619073.006836	619072.997803	619487.688965	619487.687744	00003	f	1970-01	49.460502	0
135	1	0.395911	622003.422852	622003.420898	622415.750977	622415.748779	3	1	0.419819	623416.997803	623416.989990	623839.685059	623839.681885	00003	f	1970-01	49.460502	1
136	1	0.357854	626353.483887	626353.480713	626727.761963	626727.759766	3	1	0.463213	627728.857910	627728.849854	628199.815918	628199.814941	00003	f	1970-01	49.460502	1
137	1	0.439883	630703.546875	630703.544922	631159.838867	631159.837891	2	2	0.461787	632161.163818	632161.156006	632631.772949	632631.771973	00003	f	1970-01	49.460502	1
138	1	0.382450	635136.941895	635136.939941	635535.804932	635535.802734	2	2	0.422441	636538.345703	636538.336914	636975.828857	636975.827881	00003	f	1970-01	49.460502	0
139	1	0.400852	639487.010986	639487.008789	639904.268066	639904.266846	2	2	0.439786	640905.445801	640905.437012	641359.889893	641359.887939	00003	f	1970-01	49.460502	0
140	1	0.361137	643870.406738	643870.404053	644247.967041	644247.965820	2	1	0.434440	645248.821045	645248.814697	645687.975830	645687.973877	00003	f	1970-01	49.460502	1
141	1	0.395675	648203.794922	648203.792725	648615.908936	648615.906006	2	1	0.499592	649617.005859	649616.999023	650119.859863	650119.858887	00003	f	1970-01	49.460502	1
142	1	0.554369	652637.187012	652637.184814	653207.993896	653207.991943	2	1	0.443611	654209.184814	654209.175781	654663.927979	654663.925781	00003	f	1970-01	49.460502	1
143	1	0.829003	657170.581787	657170.579834	658016.007812	658016.006104	2	1	0.387716	659017.072021	659017.063965	659408.083008	659408.080811	00003	f	1970-01	49.460502	0
144	1	0.358878	661920.655029	661920.652832	662295.956787	662295.954834	2	2	0.680251	663297.014893	663297.006836	663984.054932	663984.052979	00003	f	1970-01	49.460502	0
145	1	0.632290	666487.390137	666487.386963	667136.084961	667136.083740	2	1	0.334144	668138.702881	668138.693848	668487.989014	668487.987061	00003	f	1970-01	49.460502	1
146	1	0.443458	671004.119873	671004.117920	671464.024902	671464.022949	3	2	0.393565	672465.126953	672465.119873	672864.116943	672864.114990	00003	f	1970-01	49.460502	0
147	1	0.604738	675370.868896	675370.866943	675991.992920	675991.990723	2	1	0.708156	676993.193848	676993.186035	677712.117920	677712.115967	00003	f	1970-01	49.460502	0
148	1	0.394710	680220.933838	680220.930908	680632.046875	680632.044922	2	2	0.626814	681633.052734	681633.046875	682264.176758	682264.175049	00003	f	1970-01	49.460502	1
149	1	0.412761	684771.003906	684771.000732	685200.166992	685200.165039	2	2	0.452007	686201.654053	686201.639893	686656.106934	686656.105957	00003	f	1970-01	49.460502	1
150	1	0.444746	689171.052002	689171.049805	689632.202881	689632.200928	2	2	0.410819	690633.457031	690633.448730	691048.306885	691048.305908	00003	f	1970-01	49.460502	1
151	1	0.365328	693554.441895	693554.438721	693936.189941	693936.187012	2	1	1.141933	694939.189941	694939.180908	696096.145020	696096.143066	00003	f	1970-01	49.460502	0
152	1	0.355461	698604.629150	698604.626953	698976.396973	698976.394775	2	2	0.532659	699977.236084	699977.229736	700520.309814	700520.308105	00003	f	1970-01	49.460502	0
153	1	0.562134	703039.073975	703039.072021	703616.462891	703616.459717	3	1	0.419369	704617.548096	704617.540771	705040.388916	705040.386963	00003	f	1970-01	49.460502	1
154	1	0.349348	707554.639893	707554.637939	707920.400879	707920.399902	3	1	0.470652	708922.621094	708922.612793	709408.392822	709408.391846	00003	f	1970-01	49.460502	0
155	2	0.422531	711921.363770	711921.361816	712360.308838	712360.306885	3	1	0.389271	713361.404053	713361.395752	713760.414795	713760.412842	00003	f	1970-01	49.460502	1
156	2	0.408521	716271.442871	716271.440918	716696.369873	716696.367920	3	1	0.463767	717697.500000	717697.491943	718168.295898	718168.293945	00003	f	1970-01	49.460502	0
157	2	0.328480	720671.517822	720671.514893	721016.394775	721016.392090	3	1	0.363257	722017.490967	722017.483887	722384.517822	722384.516113	00003	f	1970-01	49.460502	1
158	2	0.272101	724888.213867	724888.211914	725176.785889	725176.783936	3	1	0.388476	726177.191895	726177.188965	726576.468018	726576.465820	00003	f	1970-01	49.460502	0
159	2	0.503823	729088.321045	729088.318848	729608.538818	729608.535889	3	1	0.443097	730609.784912	730609.776123	731064.477051	731064.474854	00003	f	1970-01	49.460502	0
160	2	0.620457	733571.674805	733571.672852	734208.536865	734208.534912	2	1	1.179143	735209.748047	735209.739014	736400.625000	736400.622803	00003	f	1970-01	49.460502	0
161	2	0.350985	738905.079834	738905.077881	739272.481934	739272.479980	2	2	0.472577	740272.898926	740272.896973	740760.811768	740760.809814	00003	f	1970-01	49.460502	1
162	2	0.352246	743271.781006	743271.778809	743640.491943	743640.488770	3	1	0.529572	744641.672852	744641.665039	745184.500977	745184.497803	00003	f	1970-01	49.460502	0
163	1	0.407550	747688.608887	747688.606934	748112.527832	748112.524902	2	2	0.487032	749113.708984	749113.699951	749608.677002	749608.675049	00003	f	1970-01	49.460502	0
164	1	0.422293	752121.938965	752121.935791	752560.667969	752560.665771	2	1	0.365045	753561.836914	753561.828857	753936.751953	753936.750977	00003	f	1970-01	49.460502	0
165	1	0.496899	756455.361816	756455.359863	756968.672119	756968.668945	3	1	0.484334	757969.771973	757969.764893	758472.784912	758472.783936	00003	f	1970-01	49.460502	1
166	1	0.339544	760988.739014	760988.736816	761344.711914	761344.708984	2	2	0.429546	762345.782959	762345.775879	762784.716797	762784.713867	00003	f	1970-01	49.460502	1
167	1	0.383632	765288.800049	765288.797852	765688.834961	765688.833984	2	2	0.391585	766690.025879	766690.017822	767096.818848	767096.815918	00003	f	1970-01	49.460502	0
168	1	0.370743	769605.527832	769605.525879	769992.687988	769992.673828	3	1	0.355578	770994.185059	770994.171875	771360.866943	771360.864746	00003	f	1970-01	49.460502	1
169	1	0.544067	773872.254883	773872.252930	774432.734863	774432.732910	3	1	0.370106	775434.304932	775434.291748	775808.791016	775808.789062	00003	f	1970-01	49.460502	1
170	1	0.390171	778322.310059	778322.307861	778728.902832	778728.899902	2	2	0.405969	779729.426758	779729.424072	780144.734863	780144.733887	00003	f	1970-01	49.460502	1
171	1	0.376842	782655.723877	782655.720947	783048.956787	783048.955811	3	1	0.521466	784050.076904	784050.069824	784576.942871	784576.940918	00003	f	1970-01	49.460502	1
172	1	0.431359	787089.093018	787089.090820	787536.871826	787536.869873	2	2	0.421412	788537.891846	788537.885986	788976.976807	788976.974121	00003	f	1970-01	49.460502	1
173	1	0.327211	791489.201904	791489.198975	791832.796875	791832.794922	2	2	0.393955	792833.906982	792833.898926	793232.906738	793232.904053	00003	f	1970-01	49.460502	1
174	1	0.389344	795739.252686	795739.250000	796144.991943	796144.989990	3	1	0.397200	797146.171875	797146.163818	797552.870117	797552.867920	00003	f	1970-01	49.460502	0
175	1	0.360519	800055.989990	800055.987793	800432.904053	800432.900879	3	1	0.417986	801434.083984	801434.074951	801857.044922	801857.043945	00003	f	1970-01	49.460502	1
176	1	0.443951	804372.681885	804372.679932	804833.093018	804833.091064	3	1	0.490018	805834.169922	805834.162842	806329.169922	806329.167725	00003	f	1970-01	49.460502	0
177	1	0.321307	808839.421143	808839.418945	809177.130859	809177.128906	2	2	0.347929	810178.302979	810178.293945	810537.113037	810537.110840	00003	f	1970-01	49.460502	1
178	1	0.336619	813056.141846	813056.139893	813409.163086	813409.161865	2	1	0.498492	814410.347900	814410.339844	814921.064941	814921.063965	00003	f	1970-01	49.460502	1
179	1	0.457172	817439.529785	817439.528076	817913.116943	817913.114990	2	2	0.414491	818914.753906	818914.739746	819337.166992	819337.150879	00003	f	1970-01	49.460502	0
180	1	0.456400	821856.263916	821856.261963	822329.083008	822329.080811	2	2	0.454120	823330.291992	823330.283936	823793.496826	823793.494873	00003	f	1970-01	49.460502	0
181	1	0.390340	826306.299072	826306.295898	826713.111816	826713.109863	2	1	0.438376	827713.617920	827713.614014	828161.150879	828161.149902	00003	f	1970-01	49.460502	0
182	1	0.679709	830673.075928	830673.073975	831369.195068	831369.194092	2	1	0.460463	832370.267822	832370.260986	832833.322998	832833.320801	00003	f	1970-01	49.460502	0
183	1	0.404944	835339.757812	835339.754883	835761.158936	835761.156982	2	2	0.612254	836762.326904	836762.318848	837385.141846	837385.139893	00003	f	1970-01	49.460502	0
184	2	0.567007	839889.832031	839889.829834	840473.283936	840473.281006	3	1	0.615623	841474.596924	841474.588867	842105.258057	842105.255859	00003	f	1970-01	49.460502	0
185	1	0.897527	844623.230957	844623.229004	845537.197754	845537.195068	3	1	0.796907	846538.259033	846538.250977	847353.267822	847353.266113	00003	f	1970-01	49.460502	0
186	2	0.824303	849856.636963	849856.633789	850697.392822	850697.391113	3	1	0.606811	851698.471924	851698.464844	852313.264893	852313.263916	00003	f	1970-01	49.460502	0
187	1	0.481596	854823.379150	854823.376953	855321.416748	855321.415771	2	2	0.733435	856324.678955	856324.670898	857073.287109	857073.284912	00003	f	1970-01	49.460502	1
188	1	0.338747	859590.138916	859590.136963	859945.308838	859945.307861	3	2	0.484931	860946.473877	860946.466064	861441.526855	861441.524902	00003	f	1970-01	49.460502	0
189	2	0.340181	863956.832031	863956.828857	864313.510010	864313.506836	2	1	0.470140	865313.875977	865313.874023	865793.439941	865793.438965	00003	f	1970-01	49.460502	0
190	2	0.366133	868306.993896	868306.991699	868689.467041	868689.464844	3	2	0.374833	869691.572021	869691.563721	870081.517822	870081.517090	00003	f	1970-01	49.460502	0
191	2	0.442764	872590.319824	872590.317871	873049.496826	873049.495850	3	1	0.384792	874049.866943	874049.863770	874441.552002	874441.550049	00003	f	1970-01	49.460502	1
192	2	0.291940	876957.031006	876957.028809	877265.410889	877265.408936	3	1	0.400074	878266.574951	878266.566895	878673.583984	878673.581787	00003	f	1970-01	49.460502	0
193	2	0.274639	881190.447754	881190.445801	881481.508057	881481.506836	3	1	0.375395	882482.583984	882482.576904	882865.623047	882865.619873	00003	f	1970-01	49.460502	1
194	2	0.363504	885373.832031	885373.829834	885753.800781	885753.799805	3	1	0.571833	886754.586914	886754.582031	887345.470947	887345.468994	00003	f	1970-01	49.460502	0
195	2	0.295909	889857.213867	889857.211914	890169.573975	890169.571777	3	2	0.643829	891170.745850	891170.738037	891817.508057	891817.504883	00003	f	1970-01	49.460502	0
196	1	0.797287	894323.937012	894323.935059	895137.676025	895137.672852	2	1	0.612504	896138.666748	896138.659912	896769.599854	896769.597900	00003	f	1970-01	49.460502	0
197	1	0.687262	899274.024902	899274.022705	899977.732910	899977.731934	2	2	0.427176	900978.899902	900978.893066	901417.654053	901417.651855	00003	f	1970-01	49.460502	1
198	1	0.373112	903924.098877	903924.096924	904313.633789	904313.632080	2	2	0.397933	905314.816895	905314.808838	905721.847900	905721.845947	00003	f	1970-01	49.460502	0
199	1	0.504552	908240.834961	908240.832764	908761.787842	908761.785889	2	1	0.363691	909763.434814	909763.419922	910137.635010	910137.631836	00003	f	1970-01	49.460502	0
200	1	0.584395	912640.890869	912640.888916	913241.711914	913241.709961	3	1	0.928416	914242.899902	914242.890869	915185.746826	915185.744873	00003	f	1970-01	49.460502	1