
trial	choice1	rts1	stim1ons_sl	stim1ons_ms	choice1ons_sl	choice1ons_ms	state	choice2	rts2	stim2ons_sl	stim2ons_ms	choice2ons_sl	choice2ons_ms	SC_ID	gender	DOB	age	won

1	1	1.520570	335.050450	335.030678	1864.422990	1864.407871	2	1	1.846646	2869.770892	2869.751924	4724.025719	4724.014183	00106	f	1944-12	73.821233	1
2	1	1.324913	7242.219065	7242.177990	8584.597361	8584.582725	2	1	0.550913	9585.699699	9585.688124	10144.592677	10144.585784	00106	f	1944-12	73.821233	0
3	1	1.557453	12658.667221	12658.659662	14234.443224	14234.435682	2	1	1.254574	15235.498220	15235.485579	16498.053105	16498.043572	00106	f	1944-12	73.821233	1
4	1	1.215376	19009.998122	19009.955784	20242.832189	20242.820866	2	0	0.000000	21243.797430	21243.789708	0.000000	0.000000	00106	f	1944-12	73.821233 
5	1	0.946855	25260.517443	25260.479499	26224.916483	26224.901753	3	2	2.503603	27226.184900	27226.171855	29747.648607	29747.641569	00106	f	1944-12	73.821233	0
6	1	0.683413	32343.024491	32343.016363	33044.905520	33044.896066	2	1	1.416663	34045.958417	34045.950324	35477.564017	35477.556775	00106	f	1944-12	73.821233	1
7	1	0.955496	37993.888207	37993.880767	38967.624531	38967.614455	2	1	1.161025	39968.683299	39968.672970	41139.396405	41139.385022	00106	f	1944-12	73.821233	1
8	1	0.665139	43660.697179	43660.686583	44344.340208	44344.330273	2	1	0.918427	45345.370762	45345.359564	46282.175860	46282.164758	00106	f	1944-12	73.821233	1
9	1	1.028880	48794.590086	48794.582603	49841.628666	49841.619089	3	2	2.764168	50842.778062	50842.765963	53627.452060	53627.440804	00106	f	1944-12	73.821233	0
10	1	1.092404	56144.547986	56144.540816	57255.719960	57255.711958	2	1	0.868178	58256.740569	58256.727630	59132.510811	59132.499058	00106	f	1944-12	73.821233	0
11	1	0.631977	61646.019050	61645.971137	62295.559074	62295.548169	2	1	0.664859	63296.528694	63296.517288	63978.454509	63978.444768	00106	f	1944-12	73.821233	1
12	1	1.253301	66495.461504	66495.454026	67766.878273	67766.869963	3	1	2.272982	68767.892305	68767.880864	71053.823174	71053.813234	00106	f	1944-12	73.821233	1
13	1	0.875781	73564.165412	73564.116143	74456.842469	74456.831346	2	1	1.156823	75457.941735	75457.930333	76622.353650	76622.266911	00106	f	1944-12	73.821233	1
14	1	0.789518	79130.464356	79130.451476	79937.453234	79937.441972	2	1	0.996753	80938.342937	80938.335246	81944.958404	81944.948877	00106	f	1944-12	73.821233	1
15	1	0.938869	84464.027780	84464.014405	85421.000056	85420.992519	2	1	0.620141	86422.008434	86421.997203	87052.123134	87052.111620	00106	f	1944-12	73.821233	0
16	1	0.664516	89564.677303	89564.667680	90246.524301	90246.516938	2	1	0.668429	91249.817481	91249.804936	91934.314673	91934.303537	00106	f	1944-12	73.821233	1
17	1	0.694240	94448.075928	94448.056737	95160.165727	95160.158396	3	1	1.765848	96161.027353	96161.019876	97932.490437	97932.476936	00106	f	1944-12	73.821233	1
18	1	0.801917	100448.586933	100448.578771	101268.193880	101268.181235	2	1	1.084369	102269.125801	102269.118091	103367.447826	103367.436182	00106	f	1944-12	73.821233	1
19	1	1.041471	105881.760714	105881.753157	106941.491800	106941.483904	2	1	0.927856	107942.545801	107942.536348	108877.912758	108877.905718	00106	f	1944-12	73.821233	0
20	1	0.726629	111398.577817	111398.567729	112144.056075	112144.044802	2	1	0.938233	113145.042523	113145.030092	114088.902752	114088.893018	00106	f	1944-12	73.821233	0
21	1	0.732134	116599.758604	116599.723608	117349.684809	117349.675748	2	1	1.537507	118350.767414	118350.759787	119905.444511	119905.433467	00106	f	1944-12	73.821233	1
22	1	0.759273	122416.097724	122416.081409	123193.744517	123193.734708	2	1	0.857095	124194.717264	124194.704960	125058.278879	125058.269717	00106	f	1944-12	73.821233	0
23	1	0.922984	127567.651904	127567.644048	128507.727684	128507.718033	2	1	0.997253	129508.762356	129508.750054	130515.026526	130515.019030	00106	f	1944-12	73.821233	1
24	1	0.766954	133033.244661	133033.236996	133818.696231	133818.685147	2	1	0.932292	134819.722307	134819.712319	135767.520720	135767.510926	00106	f	1944-12	73.821233	1
25	1	0.826689	138283.419128	138283.411163	139128.814765	139128.804046	2	1	0.802866	140129.828315	140129.818403	140939.374750	140939.364794	00106	f	1944-12	73.821233	0
26	1	0.932841	143451.983407	143451.975627	144401.831751	144401.824227	3	1	1.197607	145402.843642	145402.833261	146616.933268	146616.925721	00106	f	1944-12	73.821233	1
27	1	0.936351	149134.795810	149134.785412	150089.371976	150089.360364	3	1	1.293305	151090.338931	151090.326728	152396.626680	152396.614747	00106	f	1944-12	73.821233	1
28	1	1.058617	154902.087642	154902.073748	155978.496138	155978.472738	3	1	1.689852	156979.451247	156979.443502	158677.626131	158677.612374	00106	f	1944-12	73.821233	1
29	1	0.615030	161187.850882	161187.837906	161818.806106	161818.797418	2	1	1.391057	162819.848692	162819.839082	164228.927254	164228.917222	00106	f	1944-12	73.821233	1
30	1	0.767551	166738.866900	166738.854105	167522.117160	167522.105136	2	1	0.689595	168523.131019	168523.123010	169228.210654	169228.202460	00106	f	1944-12	73.821233	1
31	1	0.560488	171736.890776	171736.879003	172314.949638	172314.940414	2	1	1.238135	173315.970265	173315.958302	174559.098196	174559.090841	00106	f	1944-12	73.821233	0
32	1	0.858250	177070.913305	177070.901560	177946.336933	177946.328621	3	1	1.251506	178947.345620	178947.335007	180206.757203	180206.749600	00106	f	1944-12	73.821233	1
33	1	0.551022	182720.259789	182720.251192	183289.572683	183289.561190	3	1	0.735799	184290.475070	184290.462495	185041.664120	185041.654805	00106	f	1944-12	73.821233	0
34	1	0.554052	187555.153379	187555.140763	188126.483220	188126.473824	3	1	0.804953	189127.512930	189127.502610	189943.917923	189943.908935	00106	f	1944-12	73.821233	1
35	1	0.760536	192455.287020	192455.230838	193232.184184	193232.177197	3	1	0.781201	194232.994857	194232.987293	195020.571963	195020.564853	00106	f	1944-12	73.821233	1
36	1	0.578827	197537.869321	197537.861404	198135.516053	198135.505092	2	1	1.242439	199136.833917	199136.818811	200399.286380	200399.269886	00106	f	1944-12	73.821233	0
37	1	0.873797	202905.861401	202905.850059	203796.933282	203796.923529	2	1	0.872175	204797.919720	204797.906573	205679.430152	205679.416332	00106	f	1944-12	73.821233	0
38	1	0.653401	208188.446555	208188.434999	208860.904509	208860.892955	2	1	0.900299	209861.876412	209861.865035	210774.852557	210774.841688	00106	f	1944-12	73.821233	1
39	1	0.904737	213288.940404	213288.932914	214211.748216	214211.741169	2	1	0.959325	215212.711076	215212.698555	216183.576007	216183.564647	00106	f	1944-12	73.821233	0
40	1	0.870490	218690.247982	218690.221659	219577.993525	219577.983046	2	1	0.832042	220578.925611	220578.918227	221423.140017	221423.132821	00106	f	1944-12	73.821233	0
41	1	1.351338	223939.168884	223939.161113	225309.079920	225309.069123	3	1	1.281618	226310.134862	226310.123268	227606.227457	227606.219919	00106	f	1944-12	73.821233	1
42	1	0.612570	230122.788715	230122.781119	230753.634874	230753.627519	2	2	1.641391	231754.625682	231754.616114	233417.162062	233417.152074	00106	f	1944-12	73.821233	0
43	1	0.894334	235926.593123	235926.568972	236835.974736	236835.967528	2	2	0.991652	237836.809899	237836.802659	238835.530880	238835.520926	00106	f	1944-12	73.821233	1
44	1	0.748226	241342.505458	241342.493328	242107.791034	242107.779925	2	2	0.771669	243109.206695	243109.191853	243897.191616	243897.180405	00106	f	1944-12	73.821233	0
45	1	0.931268	246409.021538	246409.001728	247357.442597	247357.432633	2	2	1.415806	248358.461035	248358.450824	249792.995508	249792.983315	00106	f	1944-12	73.821233	1
46	1	0.526637	252308.450446	252308.442965	252853.519224	252853.505269	2	2	0.888062	253854.523632	253854.512824	254748.190276	254748.179032	00106	f	1944-12	73.821233	1
47	1	0.906456	257259.680084	257259.671522	258183.942473	258183.931155	2	2	0.866168	259184.898502	259184.886988	260059.084326	260059.077068	00106	f	1944-12	73.821233	0
48	1	0.517693	262576.212614	262576.203812	263111.770859	263111.759523	3	1	1.365094	264112.768786	264112.758522	265492.106210	265492.098663	00106	f	1944-12	73.821233	1
49	1	0.614747	268009.386321	268009.378842	268642.451970	268642.442392	3	1	0.755639	269643.440973	269643.431005	270417.697224	270417.685364	00106	f	1944-12	73.821233	1
50	1	0.626644	272927.932011	272927.922624	273571.209344	273571.199766	2	2	1.661850	274572.064536	274572.057336	276239.989804	276239.978848	00106	f	1944-12	73.821233	0
51	1	0.658650	278759.533495	278759.525292	279436.945268	279436.932770	2	2	1.073454	280437.941129	280437.929817	281518.593556	281518.586052	00106	f	1944-12	73.821233	0
52	1	0.491667	284029.215890	284029.203166	284537.403142	284537.390662	2	2	2.286335	285538.395134	285538.383581	287836.945731	287836.936449	00106	f	1944-12	73.821233	0
53	1	0.656451	290345.947399	290345.914725	291019.204071	291019.191374	2	1	0.810712	292020.165771	292020.157874	292839.627773	292839.619952	00106	f	1944-12	73.821233	1
54	1	0.756204	295345.757960	295345.724577	296119.430333	296119.422603	2	1	0.591069	297120.393569	297120.381876	297721.051919	297721.041096	00106	f	1944-12	73.821233	1
55	1	0.634460	300230.555133	300230.507318	300881.085118	300881.075763	3	1	1.232896	301882.083660	301882.073282	303130.295599	303130.282983	00106	f	1944-12	73.821233	1
56	1	0.542361	305644.917618	305644.910291	306206.208261	306206.197807	2	1	1.252261	307207.209247	307207.198611	308466.746990	308466.737338	00106	f	1944-12	73.821233	1
57	1	0.637807	310979.649301	310979.641969	311634.526663	311634.519725	2	1	0.757781	312635.529556	312635.518437	313405.754642	313405.747193	00106	f	1944-12	73.821233	1
58	1	0.655311	315913.262934	315913.248925	316586.488199	316586.478313	2	1	0.675330	317587.436300	317587.424856	318273.294126	318273.284197	00106	f	1944-12	73.821233	1
59	1	0.532064	320781.553733	320781.540131	321330.020249	321330.010739	2	1	0.769012	322331.052102	322331.040675	323118.035499	323118.027179	00106	f	1944-12	73.821233	1
60	1	0.738232	325630.843340	325630.830448	326385.762953	326385.756073	2	1	0.694432	327386.717889	327386.706514	328093.156721	328093.145100	00106	f	1944-12	73.821233	1
61	1	0.627941	330613.914875	330613.902679	331260.642137	331260.630439	2	1	0.689914	332261.706622	332261.694490	332971.641675	332971.633934	00106	f	1944-12	73.821233	0
62	1	0.645075	335481.094013	335481.086252	336144.177766	336144.165857	2	1	0.643104	337145.018021	337145.010125	337808.972533	337808.964861	00106	f	1944-12	73.821233	0
63	1	0.541900	340315.821676	340315.809626	340874.637625	340874.626187	2	1	0.634625	341875.436437	341875.428978	342517.592024	342517.584636	00106	f	1944-12	73.821233	0
64	1	0.559726	345033.060079	345033.050695	345609.440232	345609.432941	2	1	1.052486	346610.264777	346610.256975	347668.954076	347668.946640	00106	f	1944-12	73.821233	0
65	1	0.494140	350182.073870	350182.063973	350694.183823	350694.176530	3	1	1.043163	351695.023104	351695.015651	352743.813955	352743.800806	00106	f	1944-12	73.821233	0
66	1	0.583501	355248.899940	355248.887827	355850.448102	355850.440566	2	1	1.012213	356851.267341	356851.259689	357879.404654	357879.397396	00106	f	1944-12	73.821233	1
67	1	1.485733	365818.501146	365818.485912	367320.570083	367320.562465	3	1	1.072046	368323.678561	368323.655844	369406.208081	369406.200528	00106	f	1944-12	73.821233	0
68	1	0.496991	371916.655170	371916.646769	372432.103093	372432.095620	2	1	0.716175	373432.926174	373432.918393	374167.576709	374167.569316	00106	f	1944-12	73.821233	0
69	1	0.455406	376683.645336	376683.635432	377157.334747	377157.327506	2	1	0.712976	378158.154142	378158.146609	378882.022804	378882.015566	00106	f	1944-12	73.821233	0
70	1	0.938459	381400.844754	381400.836514	382356.439986	382356.432521	2	1	0.716640	383357.190101	383357.183071	384085.613799	384085.606234	00106	f	1944-12	73.821233	1
71	1	0.829940	386601.675964	386601.660913	387449.128156	387449.120739	3	1	0.945901	388449.937867	388449.930391	389414.836158	389414.828546	00106	f	1944-12	73.821233	0
72	1	0.625501	391934.648711	391934.636569	392578.737163	392578.729563	3	1	1.042947	393579.502505	393579.495132	394629.920518	394629.910139	00106	f	1944-12	73.821233	0
73	1	0.675555	397136.225683	397136.116854	397828.234665	397828.226967	2	1	1.370316	398829.091882	398829.084502	400207.339330	400207.330200	00106	f	1944-12	73.821233	1
74	1	1.126084	402719.114560	402719.104595	403863.004010	403862.996721	2	1	0.731360	404863.752128	404863.744720	405602.463117	405602.455654	00106	f	1944-12	73.821233	1
75	1	0.827838	408119.454852	408119.439989	408965.271878	408965.264607	2	1	0.902636	409966.021142	409966.013863	410873.395626	410873.388352	00106	f	1944-12	73.821233	0
76	1	0.733629	413386.707811	413386.697739	414138.034304	414138.026539	3	1	1.664489	415139.060444	415139.048156	416819.002668	416818.994858	00106	f	1944-12	73.821233	0
77	1	0.689162	419336.456362	419336.441448	420043.982590	420043.975111	3	2	0.849668	421047.251402	421047.239773	421905.040511	421905.033064	00106	f	1944-12	73.821233	0
78	1	0.158029	424420.974080	424420.959362	424596.443451	424596.435904	2	1	1.352138	425597.297974	425597.290294	426957.409432	426957.401785	00106	f	1944-12	73.821233	1
79	1	0.905699	429471.046982	429471.039340	430393.880488	430393.872843	3	2	1.813353	431394.655754	431394.648263	433219.182033	433219.174559	00106	f	1944-12	73.821233	0
80	1	1.028739	435738.171941	435738.157069	436784.887953	436784.880408	2	1	1.305317	437785.751986	437785.744777	439111.570127	439111.562553	00106	f	1944-12	73.821233	1
81	1	0.681394	441621.767299	441621.759249	442321.179437	442321.171792	2	1	0.588374	443321.928467	443321.921287	443927.700878	443927.693301	00106	f	1944-12	73.821233	0
82	1	0.756048	446439.745886	446439.735794	447212.804556	447212.797043	2	1	0.733164	448213.552916	448213.545775	448955.957567	448955.950434	00106	f	1944-12	73.821233	1
83	1	1.109510	451472.892580	451472.879976	452599.753747	452599.746421	3	1	1.482913	453600.639590	453600.628979	455090.173255	455090.165877	00106	f	1944-12	73.821233	1
84	1	0.760450	457605.666813	457605.657070	458384.709154	458384.701656	2	1	0.792776	459385.527091	459385.519481	460183.274371	460183.267177	00106	f	1944-12	73.821233	1
85	1	0.503991	462690.692089	462690.684038	463211.794074	463211.786716	2	1	0.618244	464212.574053	464212.567177	464842.945124	464842.937781	00106	f	1944-12	73.821233	0
86	1	0.649752	467356.000472	467355.990799	468024.783704	468024.776486	2	1	0.769687	469025.538659	469025.531377	469810.867796	469810.859725	00106	f	1944-12	73.821233	0
87	1	0.547214	472323.430338	472323.418596	472889.117754	472889.110420	2	1	0.775319	473889.944294	473889.936758	474683.490359	474683.460025	00106	f	1944-12	73.821233	0
88	1	0.718770	477191.429635	477191.410949	477927.297759	477927.283969	3	1	1.167071	478928.116977	478928.109426	480109.020838	480109.013303	00106	f	1944-12	73.821233	0
89	1	0.641775	482624.820731	482624.807366	483284.379387	483284.370783	2	1	0.987776	484285.408445	484285.396342	485281.116031	485281.108549	00106	f	1944-12	73.821233	1
90	1	0.802180	487792.148559	487792.131461	488612.017092	488612.009289	2	1	0.624325	489612.791167	489612.783827	490250.914952	490250.907677	00106	f	1944-12	73.821233	1
91	1	0.819885	492758.537421	492758.529717	493596.799424	493596.791646	2	1	0.580182	494597.535183	494597.528134	495190.228891	495190.220132	00106	f	1944-12	73.821233	0
92	1	0.575076	497709.266879	497709.251668	498302.108934	498302.100787	3	1	0.971306	499302.941859	499302.934264	500281.881813	500281.861233	00106	f	1944-12	73.821233	1
93	1	0.523072	502792.795507	502792.787539	503333.712989	503333.705653	2	1	0.744988	504334.453064	504334.445823	505089.989000	505089.981518	00106	f	1944-12	73.821233	0
94	1	0.438576	507609.333462	507609.317782	508066.146373	508066.139211	2	1	0.658212	509067.051206	509067.040714	509735.950706	509735.943563	00106	f	1944-12	73.821233	0
95	1	0.991040	512243.453407	512243.444523	513252.375352	513252.367962	2	1	0.743976	514253.142678	514253.135242	515005.067079	515005.059841	00106	f	1944-12	73.821233	1
96	1	0.845224	517511.841648	517511.832181	518373.483099	518373.475659	2	1	0.696522	519374.238271	519374.231190	520091.486940	520091.478404	00106	f	1944-12	73.821233	1
97	1	0.676430	522610.515031	522610.499523	523305.131950	523305.124610	2	1	0.615936	524305.946965	524305.939525	524928.637396	524928.605455	00106	f	1944-12	73.821233	1
98	1	0.756541	527443.957702	527443.942417	528218.807678	528218.800525	3	1	1.054062	529219.672921	529219.665364	530282.671570	530282.664342	00106	f	1944-12	73.821233	1
99	1	0.638178	532794.880359	532794.871597	533450.897989	533450.890639	2	1	0.684427	534451.699380	534451.691908	535147.087116	535147.079958	00106	f	1944-12	73.821233	1
100	1	0.598999	537661.481524	537661.466742	538278.540763	538278.533273	2	1	0.633106	539279.294332	539279.287084	539929.966150	539929.955999	00106	f	1944-12	73.821233	0
101	1	0.653334	542445.175760	542445.165760	543116.704607	543116.697206	3	1	0.995683	544117.470663	544117.463508	545125.459482	545125.452291	00106	f	1944-12	73.821233	1
102	1	0.538017	547645.895770	547645.881128	548202.021461	548201.979910	3	1	0.488176	549202.748066	549202.740368	549701.824083	549701.815441	00106	f	1944-12	73.821233	0
103	1	0.649554	552212.726469	552212.716729	552880.260477	552880.252743	2	1	0.712316	553881.023585	553881.016140	554609.446292	554609.439066	00106	f	1944-12	73.821233	1
104	1	0.661460	557130.337401	557130.322358	557809.581326	557809.569244	2	1	0.571978	558810.355894	558810.348060	559402.539381	559402.530233	00106	f	1944-12	73.821233	1
105	1	0.694044	561913.740173	561913.728148	562625.294094	562625.286679	2	1	0.549806	563626.037196	563626.029668	564181.569893	564181.561953	00106	f	1944-12	73.821233	1
106	1	0.612032	566697.561273	566697.546256	567326.716978	567326.709175	2	1	0.535432	568327.545918	568327.538453	568884.009273	568884.001815	00106	f	1944-12	73.821233	0
107	1	0.623505	571397.727856	571397.718049	572038.798156	572038.790783	2	1	0.607430	573039.605418	573039.597858	573655.623157	573655.615836	00106	f	1944-12	73.821233	0
108	1	0.566583	576165.075289	576165.067067	576748.943707	576748.935965	3	1	1.022218	577749.681252	577749.673994	578787.572060	578787.564419	00106	f	1944-12	73.821233	1
109	1	0.559530	581298.206217	581298.196455	581875.833399	581875.823606	2	1	0.569483	582876.562731	582876.555451	583452.456071	583452.448567	00106	f	1944-12	73.821233	0
110	1	0.431751	585964.946283	585964.934131	586414.638842	586414.622361	2	1	0.523297	587415.362003	587415.354751	587956.608781	587956.601134	00106	f	1944-12	73.821233	0
111	1	1.202418	590466.370106	590466.351829	591685.826477	591685.819251	2	2	1.062698	592686.557974	592686.550685	593762.896635	593762.889213	00106	f	1944-12	73.821233	0
112	1	0.568969	596283.133394	596283.118002	596869.441050	596869.433482	3	1	1.036841	597870.175460	597870.168279	598920.839074	598920.831192	00106	f	1944-12	73.821233	1
113	1	0.616848	601433.954185	601433.943172	602067.462432	602067.455515	2	2	1.718201	603068.190620	603068.183274	604801.481236	604801.474028	00106	f	1944-12	73.821233	0
114	1	0.137619	607317.153278	607317.138029	607472.039647	607472.032417	2	1	0.999653	608472.889396	608472.878002	609484.406482	609484.399450	00106	f	1944-12	73.821233	0
115	1	0.781300	612000.725090	612000.710115	612799.386942	612799.379009	2	1	0.849294	613800.108334	613800.100843	614667.391286	614667.383646	00106	f	1944-12	73.821233	0
116	1	0.534355	617183.251883	617183.242385	617736.401315	617736.393815	3	1	0.896276	618737.144580	618737.137143	619647.503299	619647.495708	00106	f	1944-12	73.821233	1
117	1	0.671655	622167.158161	622167.143446	622857.515634	622857.499834	2	2	0.964157	623858.232938	623858.225645	624833.227991	624833.220418	00106	f	1944-12	73.821233	1
118	1	0.774183	627351.231943	627351.216800	628143.719872	628143.709720	2	2	1.183479	629144.475552	629144.468177	630335.835492	630335.828268	00106	f	1944-12	73.821233	0
119	1	0.501143	632851.878817	632851.866357	633370.730311	633370.722858	3	2	0.583627	634371.457238	634371.450139	634970.032700	634970.025280	00106	f	1944-12	73.821233	1
120	1	0.652433	637485.722942	637485.708153	638155.816506	638155.808796	3	1	1.457219	639156.545128	639156.537963	640626.258725	640626.251358	00106	f	1944-12	73.821233	0
121	1	0.612259	643135.844418	643135.834433	643765.783186	643765.775298	2	1	1.027669	644766.562614	644766.555320	645815.352156	645815.344575	00106	f	1944-12	73.821233	0
122	1	0.558804	648335.986054	648335.971280	648912.848275	648912.840641	2	1	0.789633	649913.649706	649913.642279	650711.049810	650711.039605	00106	f	1944-12	73.821233	0
123	1	0.500136	653219.061146	653219.052629	653737.862929	653737.855899	3	2	1.557992	654738.613101	654738.605321	656311.850752	656311.843594	00106	f	1944-12	73.821233	1
124	1	0.844344	658819.676626	658819.653587	659682.903505	659682.892949	2	2	0.508981	660690.429112	660690.418636	661213.631771	661213.623124	00106	f	1944-12	73.821233	0
125	1	0.389702	663737.117440	663737.074806	664144.682569	664144.675373	3	2	0.980944	665145.419538	665145.412202	666136.867979	666136.860807	00106	f	1944-12	73.821233	0
126	1	0.649382	668653.920509	668653.905381	669321.790788	669321.782467	2	2	0.877140	670322.601966	670322.594440	671215.874949	671215.867853	00106	f	1944-12	73.821233	1
127	1	0.756272	673722.265583	673722.248374	674495.452076	674495.444423	2	2	0.789837	675496.179836	675496.172514	676296.679421	676296.669242	00106	f	1944-12	73.821233	0
128	1	0.392333	678804.958957	678804.947101	679215.356376	679215.344383	2	2	0.702954	680216.086729	680216.079301	680926.753448	680926.745671	00106	f	1944-12	73.821233	0
129	1	0.477251	683438.230149	683438.220282	683933.905740	683933.898422	3	2	1.222972	684934.714388	684934.706638	686164.446702	686164.436230	00106	f	1944-12	73.821233	0
130	1	0.457126	688672.970744	688672.963658	689147.455988	689147.448466	2	2	0.648275	690148.265075	690148.257746	690805.275291	690805.267454	00106	f	1944-12	73.821233	0
131	1	0.685060	693322.846426	693322.834443	694025.454468	694025.445694	2	1	1.693038	695026.185597	695026.178082	696732.729559	696732.722049	00106	f	1944-12	73.821233	0
132	1	1.072579	699240.526466	699240.497870	700330.196572	700330.189315	2	2	0.767100	701330.921919	701330.914743	702108.495273	702108.487513	00106	f	1944-12	73.821233	1
133	1	0.638606	704623.613741	704623.598813	705279.754596	705279.746847	2	2	0.836302	706280.494272	706280.487023	707127.779963	707127.772393	00106	f	1944-12	73.821233	1
134	1	1.000784	716259.107046	716259.092223	717276.746080	717276.735909	2	2	1.085136	718277.476258	718277.469084	719376.609450	719376.597997	00106	f	1944-12	73.821233	1
135	1	0.731686	721890.563260	721890.553475	722641.368174	722641.353361	3	2	1.462742	723642.087765	723642.080538	725121.453956	725121.446465	00106	f	1944-12	73.821233	0
136	1	0.589118	727641.123370	727641.108512	728248.847449	728248.840119	3	2	0.544903	729249.590950	729249.583671	729804.950790	729804.941491	00106	f	1944-12	73.821233	1
137	1	0.987792	732325.131059	732325.116416	733331.309330	733331.301651	2	2	1.906871	734332.207977	734332.200404	736249.945185	736249.937569	00106	f	1944-12	73.821233	0
138	1	0.599700	738760.035531	738760.028059	739376.628861	739376.621444	2	2	1.229455	740377.357799	740377.350515	741623.035963	741623.028344	00106	f	1944-12	73.821233	1
139	1	1.002729	744142.657688	744142.642700	745163.376819	745163.369215	2	2	0.655449	746164.138010	746164.130419	746832.262650	746832.255396	00106	f	1944-12	73.821233	1
140	1	0.814345	749342.923913	749342.912167	750175.554516	750175.547225	2	2	0.699453	751180.218805	751180.210891	751893.255204	751893.247801	00106	f	1944-12	73.821233	1
141	1	0.853491	754410.289339	754410.274561	755281.247503	755281.240204	2	2	0.572856	756281.976591	756281.969183	756867.751480	756867.743683	00106	f	1944-12	73.821233	1
142	1	0.654639	759377.315495	759377.305690	760049.930918	760049.921109	3	2	1.582323	761050.716350	761050.708878	762644.409986	762644.402809	00106	f	1944-12	73.821233	1
143	1	0.625726	765161.253482	765161.238698	765804.604306	765804.597061	3	2	0.739330	766805.356121	766805.348794	767552.177445	767552.170160	00106	f	1944-12	73.821233	0
144	1	0.381881	770061.340979	770061.333506	770461.154555	770461.139683	2	2	1.180099	771462.030045	771462.022816	772659.580230	772659.572437	00106	f	1944-12	73.821233	0
145	1	0.542353	775178.909999	775178.894636	775738.454262	775738.446858	2	2	0.547910	776739.234396	776739.227112	777294.852658	777294.844991	00106	f	1944-12	73.821233	0
146	1	0.520434	779812.473371	779812.458226	780350.178999	780350.171649	2	2	0.706345	781355.209749	781355.201253	782069.503630	782069.495956	00106	f	1944-12	73.821233	0
147	1	1.790028	784578.926939	784578.917128	786386.719834	786386.712345	2	2	0.806251	787387.486708	787387.479521	788203.110840	788203.101101	00106	f	1944-12	73.821233	0
148	1	0.563322	790712.179802	790712.170084	791293.709869	791293.702117	2	1	0.585428	792294.492245	792294.485052	792900.406585	792900.394301	00106	f	1944-12	73.821233	1
149	1	0.942691	795413.039514	795413.027394	796373.383194	796373.375914	2	1	0.637781	797374.115614	797374.108288	798019.308605	798019.301009	00106	f	1944-12	73.821233	0
150	1	0.467409	800530.310785	800530.300713	801015.188263	801015.176191	2	1	0.429334	802016.256333	802016.244409	802460.172253	802460.162214	00106	f	1944-12	73.821233	0
151	1	0.397634	804980.690637	804980.675357	805396.082921	805396.075599	3	1	1.214280	806396.895888	806396.888485	807628.957694	807628.950077	00106	f	1944-12	73.821233	1
152	1	0.650986	810147.850267	810147.835279	810816.175482	810816.168005	2	1	0.642842	811821.529289	811821.519408	812474.254546	812474.246919	00106	f	1944-12	73.821233	0
153	1	0.392889	814981.544397	814981.535810	815391.994288	815391.986865	2	1	0.683027	816392.805276	816392.797956	817082.625824	817082.618427	00106	f	1944-12	73.821233	1
154	1	0.527476	819598.451116	819598.435503	820143.452067	820143.444388	3	1	1.616720	821144.265650	821144.258130	822766.862606	822766.854829	00106	f	1944-12	73.821233	1
155	1	0.654567	825282.172239	825282.157273	825955.244186	825955.212999	2	1	0.785416	826955.952051	826955.945035	827752.168243	827752.160626	00106	f	1944-12	73.821233	0
156	1	0.536724	830265.920568	830265.911048	830820.118795	830820.111635	2	1	0.653053	831820.891482	831820.884356	832485.901433	832485.894246	00106	f	1944-12	73.821233	0
157	1	0.624653	834999.296708	834999.284232	835641.523407	835641.515587	2	2	1.267593	836642.399881	836642.391907	837917.863410	837917.855671	00106	f	1944-12	73.821233	1
158	1	0.914734	840432.865369	840432.850146	841365.313776	841365.258856	2	2	0.841594	842370.221723	842370.192680	843225.034505	843225.027344	00106	f	1944-12	73.821233	0
159	1	0.279484	845733.755183	845733.736999	846030.515681	846030.507897	2	2	0.653100	847031.325396	847031.318051	847704.226559	847704.219327	00106	f	1944-12	73.821233	0
160	1	0.371297	850217.137022	850217.122153	850605.921009	850605.913730	2	1	0.629551	851606.668682	851606.661154	852248.584100	852248.562496	00106	f	1944-12	73.821233	0
161	1	0.499619	854766.774162	854766.759385	855284.737671	855284.729816	2	1	0.677749	856285.467200	856285.459712	856979.266050	856979.253200	00106	f	1944-12	73.821233	1
162	1	0.595975	859484.989555	859484.971274	860098.104257	860098.092808	2	1	0.545528	861098.993284	861098.985150	861663.717054	861663.709969	00106	f	1944-12	73.821233	1
163	1	0.588995	864184.067346	864184.052284	864792.832824	864792.823263	2	1	0.722177	865793.559324	865793.552021	866523.756174	866523.748177	00106	f	1944-12	73.821233	0
164	1	0.335595	869034.680568	869034.670802	869388.080911	869388.073403	3	2	1.946135	870388.804551	870388.797121	872349.036559	872349.028888	00106	f	1944-12	73.821233	1
165	1	0.708742	874868.638011	874868.623060	875594.988965	875594.981549	3	2	0.664447	876595.723597	876595.716357	877267.947907	877267.937177	00106	f	1944-12	73.821233	0
166	1	0.569110	879785.899462	879785.884428	880372.297666	880372.290014	3	2	0.716557	881373.098018	881373.090568	882102.375429	882102.368069	00106	f	1944-12	73.821233	1
167	1	0.578065	884619.436640	884619.421175	885215.283972	885215.276547	3	2	0.588538	886216.021143	886216.012890	886825.285731	886825.278063	00106	f	1944-12	73.821233	0
168	1	0.577959	889335.484980	889335.473000	889932.138272	889932.130664	2	2	0.611118	890932.858285	890932.851165	891564.869066	891564.861668	00106	f	1944-12	73.821233	1
169	1	0.542580	894071.888485	894071.828884	894629.826678	894629.814349	2	2	0.615894	895630.617083	895630.609780	896254.288030	896254.280987	00106	f	1944-12	73.821233	1
170	1	0.565952	898770.399115	898770.384292	899354.294993	899354.287366	2	2	0.676848	900355.023466	900355.016231	901047.903350	901047.893815	00106	f	1944-12	73.821233	1
171	1	0.512772	903570.220340	903570.205401	904101.067689	904101.060328	2	2	0.532268	905101.853269	905101.845945	905654.167303	905654.159506	00106	f	1944-12	73.821233	1
172	1	0.593797	908170.110776	908170.098971	908782.390493	908782.383049	2	2	1.106784	909783.135632	909783.128070	910896.462819	910896.451937	00106	f	1944-12	73.821233	1
173	1	0.514349	913404.985810	913404.977937	913936.680458	913936.672226	2	2	0.598003	914937.475806	914937.468373	915553.623714	915553.616323	00106	f	1944-12	73.821233	1
174	1	0.803798	918071.760971	918071.745891	918893.009215	918893.001790	3	2	0.842358	919893.791871	919893.784446	920748.029308	920747.999698	00106	f	1944-12	73.821233	1
175	1	0.143691	923256.524469	923256.516284	923416.641521	923416.634092	2	2	0.431263	924417.441441	924417.434157	924855.244372	924855.237140	00106	f	1944-12	73.821233	1
176	1	0.515264	927372.157315	927372.142104	927904.893209	927904.885728	2	2	0.521008	928905.611966	928905.604440	929444.265775	929444.258394	00106	f	1944-12	73.821233	1
177	1	0.462043	931956.102055	931955.992948	932435.382381	932435.374902	2	2	0.610295	933436.114101	933436.106821	934067.190453	934067.183089	00106	f	1944-12	73.821233	1
178	1	0.468769	936574.765972	936574.752783	937060.105096	937060.094843	2	2	0.474938	938060.827343	938060.819570	938548.570372	938548.562615	00106	f	1944-12	73.821233	1
179	1	0.514021	941056.939369	941056.926707	941588.469313	941588.461707	2	2	0.610652	942589.188744	942589.181508	943218.429972	943218.422741	00106	f	1944-12	73.821233	0
180	1	0.533300	945724.746418	945724.724268	946273.921017	946273.913457	2	2	0.577434	947274.639824	947274.632600	947869.209628	947869.202058	00106	f	1944-12	73.821233	0
181	1	0.534841	950390.956813	950390.941341	950942.944197	950942.936985	3	2	0.814694	951943.678675	951943.671526	952772.279247	952772.271874	00106	f	1944-12	73.821233	0
182	1	0.537795	955291.038946	955291.023783	955846.223427	955846.215926	2	2	1.504498	956846.961651	956846.954346	958363.382449	958363.374832	00106	f	1944-12	73.821233	1
183	1	0.790990	960875.438197	960875.423720	961683.491905	961683.478785	2	2	0.798410	962684.213212	962684.205914	963490.365709	963490.352687	00106	f	1944-12	73.821233	1
184	1	0.727406	966008.134329	966008.119137	966753.340894	966753.333445	2	2	0.655759	967754.049198	967754.041863	968415.435518	968415.427990	00106	f	1944-12	73.821233	1
185	1	0.825313	970924.752807	970924.742800	971768.254900	971768.247604	3	2	0.569486	972768.977976	972768.970752	973345.470478	973345.463006	00106	f	1944-12	73.821233	1
186	1	0.757865	975858.306535	975858.294799	976634.393736	976634.382097	2	2	0.633429	977635.170656	977635.162865	978276.276759	978276.269301	00106	f	1944-12	73.821233	1
187	1	0.808086	980792.126232	980792.111541	981618.546171	981618.538924	2	2	0.576412	982619.298099	982619.290456	983203.440673	983203.432998	00106	f	1944-12	73.821233	0
188	1	0.595192	985709.823162	985709.811250	986322.286983	986322.279584	2	2	0.977585	987323.134548	987323.126676	988321.802066	988321.794577	00106	f	1944-12	73.821233	0
189	1	0.626254	990842.448233	990842.436308	991487.415957	991487.407226	2	2	0.899056	992488.124591	992488.117078	993394.313249	993394.305769	00106	f	1944-12	73.821233	0
190	1	0.507124	995910.351200	995910.336317	996435.016349	996435.009144	3	2	1.055641	997435.721837	997435.714516	998499.700874	998499.693479	00106	f	1944-12	73.821233	0
191	1	0.655481	1001009.758323	1001009.748484	1001683.680320	1001683.672962	2	2	1.166019	1002684.388091	1002684.380691	1003861.264325	1003861.257243	00106	f	1944-12	73.821233	0
192	1	0.061018	1006377.487166	1006377.471909	1006456.779381	1006456.771660	2	1	0.513830	1007457.484544	1007457.477403	1007992.195421	1007992.187667	00106	f	1944-12	73.821233	0
193	1	0.519400	1010510.587970	1010510.573156	1011048.603133	1011048.595611	2	1	0.551733	1012049.533970	1012049.523755	1012614.614168	1012614.598957	00106	f	1944-12	73.821233	1
194	1	0.666861	1015127.442368	1015127.430388	1015812.939923	1015812.932487	2	1	0.523849	1016813.669460	1016813.662043	1017353.031060	1017353.023332	00106	f	1944-12	73.821233	1
195	1	0.665618	1019862.525996	1019862.516151	1020545.538030	1020545.527743	2	1	0.602828	1021550.373557	1021550.365155	1022168.630552	1022167.942476	00106	f	1944-12	73.821233	1
196	1	0.598401	1024678.030420	1024678.020550	1025294.935971	1025294.928905	2	1	0.900386	1026295.667421	1026295.659787	1027213.678497	1027213.669442	00106	f	1944-12	73.821233	1
197	1	0.696769	1029729.580917	1029729.566637	1030443.900104	1030443.891542	3	1	1.059036	1031444.626015	1031444.618777	1032522.953719	1032522.946332	00106	f	1944-12	73.821233	1
198	1	0.689669	1035030.025733	1035030.018057	1035737.237437	1035737.230087	2	1	0.604160	1036738.026787	1036738.019150	1037350.929390	1037350.921926	00106	f	1944-12	73.821233	0
199	1	0.492422	1039863.170456	1039863.158313	1040373.305761	1040373.294209	2	1	0.548767	1041374.327322	1041374.319307	1041930.035378	1041930.028053	00106	f	1944-12	73.821233	1
200	1	0.541047	1044446.837186	1044446.822506	1045005.726148	1045005.718941	2	1	0.638208	1046006.513217	1046006.504785	1046652.821235	1046652.813975	00106	f	1944-12	73.821233	0