
trial	choice1	rts1	stim1ons_sl	stim1ons_ms	choice1ons_sl	choice1ons_ms	state	choice2	rts2	stim2ons_sl	stim2ons_ms	choice2ons_sl	choice2ons_ms	SC_ID	gender	DOB	age	won

1	1	2.594539	141.617920	141.614990	2749.818115	2749.817139	2	2	0.985571	3753.130859	3753.123047	4757.540039	4757.539062	00022	f	1970-01	49.651826	0
2	2	1.260170	7289.232910	7289.229980	8565.520020	8565.519043	3	2	1.032748	9567.544922	9567.537109	10621.545898	10621.545166	00022	f	1970-01	49.651826	1
3	1	0.722193	13139.316895	13139.315186	13877.636963	13877.635986	3	1	0.739679	14879.635010	14879.622803	15629.590088	15629.588135	00022	f	1970-01	49.651826	0
4	2	0.418082	18139.396973	18139.395020	18573.591797	18573.591064	3	2	0.480664	19575.064941	19575.058838	20069.634766	20069.633057	00022	f	1970-01	49.651826	1
5	2	0.536114	22590.218018	22590.215820	23141.683105	23141.681885	3	2	0.458101	24148.146973	24148.144043	24613.722168	24613.719971	00022	f	1970-01	49.651826	1
6	2	0.594018	27139.403076	27139.399902	27749.657959	27749.656006	3	2	0.544701	28751.448975	28751.440918	29301.726074	29301.708984	00022	f	1970-01	49.651826	0
7	1	0.487337	31806.106934	31806.104980	32309.687988	32309.686035	2	1	0.891218	33310.479980	33310.477051	34213.718994	34213.717041	00022	f	1970-01	49.651826	1
8	1	0.578499	36722.927979	36722.925781	37317.723877	37317.722168	2	1	0.546727	38318.958984	38318.951172	38869.702148	38869.699951	00022	f	1970-01	49.651826	0
9	2	0.656620	41372.921875	41372.918945	42045.781982	42045.780762	2	2	0.773116	43047.192139	43047.179932	43829.798828	43829.797852	00022	f	1970-01	49.651826	1
10	2	0.649784	46339.726807	46339.725098	47005.842773	47005.842041	3	2	0.663112	48008.202881	48008.194824	48685.884033	48685.882080	00022	f	1970-01	49.651826	0
11	1	0.495899	51189.851074	51189.848877	51701.979004	51701.978027	2	1	0.467106	52703.702881	52703.695068	53190.046143	53190.045166	00022	f	1970-01	49.651826	1
12	2	0.467274	55706.654053	55706.651855	56190.196045	56190.194092	3	2	0.591756	57191.513916	57191.505859	57798.128174	57798.125977	00022	f	1970-01	49.651826	0
13	1	0.395127	60306.781982	60306.780029	60718.153809	60718.153076	3	2	1.481919	61719.289062	61719.281982	63206.170898	63206.169189	00022	f	1970-01	49.651826	0
14	1	0.858387	65723.710938	65723.707764	66598.228027	66598.226074	2	1	0.847159	67599.837891	67599.828857	68454.304932	68454.303955	00022	f	1970-01	49.651826	0
15	2	0.384431	70973.726074	70973.724121	71374.411133	71374.408936	3	2	0.480274	72375.606934	72375.598877	72870.367920	72870.366943	00022	f	1970-01	49.651826	0
16	1	0.592321	75373.833984	75373.832031	75982.395020	75982.393066	2	1	0.527582	76990.860840	76990.858887	77534.464111	77534.461914	00022	f	1970-01	49.651826	1
17	1	0.541649	80040.614014	80040.612061	80598.503174	80598.501953	3	1	0.655377	81599.491943	81599.484863	82262.593994	82262.592041	00022	f	1970-01	49.651826	1
18	1	0.592223	84774.065918	84774.062988	85382.540039	85382.539062	3	1	0.671547	86391.177002	86391.174072	87078.645020	87078.643066	00022	f	1970-01	49.651826	1
19	1	0.671546	89590.831055	89590.829102	90278.716064	90278.713867	3	1	0.676072	91279.813965	91279.805908	91966.666992	91966.666016	00022	f	1970-01	49.651826	1
20	1	0.387503	94490.989990	94490.988037	94894.702881	94894.700928	2	1	0.531416	95895.968018	95895.959961	96438.775146	96438.774170	00022	f	1970-01	49.651826	1
21	1	0.440861	98959.322021	98959.320068	99414.856934	99414.854980	3	1	0.333798	100416.017090	100416.009766	100758.826904	100758.825928	00022	f	1970-01	49.651826	0
22	2	0.363444	103291.175049	103291.172852	103670.864990	103670.862793	2	2	0.468005	104672.109131	104672.101074	105158.889893	105158.888916	00022	f	1970-01	49.651826	0
23	1	0.348055	107674.629883	107674.627930	108038.917969	108038.916992	2	1	0.333354	109040.002197	109039.993896	109391.009033	109391.007812	00022	f	1970-01	49.651826	1
24	1	0.314798	111908.054932	111908.052002	112239.107178	112239.104980	2	1	0.341358	113239.468994	113239.466797	113599.149902	113599.148926	00022	f	1970-01	49.651826	0
25	2	0.514660	116108.187988	116108.185059	116639.091064	116639.089111	3	1	1.189266	117640.593018	117640.578857	118847.166992	118847.166016	00022	f	1970-01	49.651826	1
26	2	0.464709	121358.315918	121358.312988	121839.268799	121839.267822	3	1	0.093244	122840.831055	122840.822021	122951.277832	122951.277100	00022	f	1970-01	49.651826	1
27	2	0.436521	125458.429932	125458.427979	125911.273926	125911.272949	2	1	1.130610	126912.780029	126912.765869	128055.422119	128055.406982	00022	f	1970-01	49.651826	0
28	2	0.519888	130575.205078	130575.202881	131111.340088	131111.337891	2	1	0.586501	132112.987061	132112.971924	132711.456055	132711.453857	00022	f	1970-01	49.651826	1
29	2	0.485872	135225.323975	135225.321045	135727.437988	135727.437012	3	1	0.361817	136728.875977	136728.863037	137103.493896	137103.492920	00022	f	1970-01	49.651826	1
30	2	0.478576	139608.766113	139608.763916	140103.588135	140103.584961	3	1	0.394724	141104.176025	141104.171875	141503.518066	141503.516846	00022	f	1970-01	49.651826	1
31	1	2.214577	144008.864990	144008.863037	146239.688965	146239.687988	2	1	0.508998	147240.645020	147240.638916	147767.643066	147767.642090	00022	f	1970-01	49.651826	1
32	1	0.539886	150275.686035	150275.684082	150831.821045	150831.819092	2	1	0.301629	151832.904053	151832.895996	152143.851074	152143.848877	00022	f	1970-01	49.651826	1
33	1	0.324626	154659.146973	154659.145020	155000.016846	155000.015869	2	1	0.445573	156001.092773	156001.085938	156455.826904	156455.824951	00022	f	1970-01	49.651826	1
34	1	1.080385	158961.283936	158961.281006	160055.843018	160055.841797	2	1	0.372306	161056.834961	161056.829834	161447.879883	161447.879150	00022	f	1970-01	49.651826	0
35	2	0.352355	163959.317871	163959.315918	164327.920898	164327.918945	3	1	0.520914	165344.067139	165344.058105	165880.000977	165880.000000	00022	f	1970-01	49.651826	1
36	2	0.391191	168392.822021	168392.820068	168800.233154	168800.230957	3	1	0.317815	169801.314941	169801.307861	170128.071045	170128.070068	00022	f	1970-01	49.651826	1
37	2	0.388304	172659.562988	172659.560791	173064.104980	173064.103027	3	1	0.284222	174065.297119	174065.289062	174360.176025	174360.173828	00022	f	1970-01	49.651826	0
38	1	0.283589	176876.382080	176876.378906	177176.151123	177176.149170	3	1	0.599484	178177.697754	178177.688965	178792.175049	178792.174072	00022	f	1970-01	49.651826	1
39	1	0.490250	181309.726807	181309.724121	181816.222900	181816.221924	3	1	0.309311	182817.320068	182817.312988	183136.261963	183136.260986	00022	f	1970-01	49.651826	0
40	2	0.380826	185643.198975	185643.197021	186040.364990	186040.364014	3	1	0.268788	187041.363037	187041.355957	187328.357910	187328.355957	00022	f	1970-01	49.651826	1
41	2	0.460835	189843.302002	189843.300049	190320.375000	190320.374023	3	1	0.344820	191321.364014	191321.356934	191672.417969	191672.416992	00022	f	1970-01	49.651826	1
42	2	0.343467	194176.726074	194176.723877	194536.437012	194536.436035	3	1	0.448812	195537.540771	195537.533936	195992.447998	195992.446777	00022	f	1970-01	49.651826	0
43	2	0.418116	198510.128906	198510.126953	198944.495850	198944.494873	3	1	1.080773	199945.768066	199945.760010	201040.635010	201040.632812	00022	f	1970-01	49.651826	0
44	1	0.336773	203543.576904	203543.574951	203896.603027	203896.600830	3	1	0.322636	204897.366943	204897.362061	205232.607178	205232.604980	00022	f	1970-01	49.651826	1
45	1	0.416836	207743.680908	207743.678955	208176.763916	208176.762939	2	1	0.399240	209178.429932	209178.420898	209592.693115	209592.691895	00022	f	1970-01	49.651826	1
46	1	0.506088	212110.458984	212110.457031	212632.796875	212632.795166	2	1	0.325017	213634.035156	213634.026855	213968.840088	213968.837891	00022	f	1970-01	49.651826	1
47	1	0.339242	216477.219971	216477.217773	216832.708984	216832.708008	2	1	0.365265	217833.815186	217833.806885	218208.875000	218208.872070	00022	f	1970-01	49.651826	1
48	1	0.593291	220727.479004	220727.476074	221336.887207	221336.885986	2	2	1.152605	222345.360107	222345.350830	223512.993164	223512.991943	00022	f	1970-01	49.651826	1
49	1	0.589226	226027.444092	226027.441895	226632.920898	226632.918945	2	2	0.557121	227633.913086	227633.906982	228200.917969	228200.916992	00022	f	1970-01	49.651826	1
50	1	0.577837	230711.005859	230711.002930	231304.971924	231304.970947	2	2	0.346208	232305.989014	232305.982178	232657.058838	232657.057129	00022	f	1970-01	49.651826	0
51	2	0.407771	235161.008057	235161.005859	235585.030029	235585.027832	3	1	0.415062	236585.392090	236585.390137	237009.120850	237009.118896	00022	f	1970-01	49.651826	1
52	2	0.561108	239527.776855	239527.774902	240105.137939	240105.136963	2	1	1.025983	241105.625000	241105.622070	242137.346924	242137.345947	00022	f	1970-01	49.651826	1
53	2	0.468437	244644.558838	244644.556885	245129.245117	245129.244141	2	1	0.433026	246130.443115	246130.434082	246577.294922	246577.292969	00022	f	1970-01	49.651826	0
54	1	0.642399	249094.675049	249094.671875	249753.289795	249753.288086	3	1	0.423178	250754.452881	250754.445068	251185.305176	251185.303955	00022	f	1970-01	49.651826	1
55	1	0.466314	253694.768799	253694.767090	254177.333984	254177.333008	2	1	0.486884	255179.395996	255179.387939	255681.333008	255681.332031	00022	f	1970-01	49.651826	1
56	1	0.765619	258211.511963	258211.510010	258993.376953	258993.375000	2	2	0.542233	259996.154053	259996.145996	260553.457031	260553.456055	00022	f	1970-01	49.651826	1
57	2	2.755741	263061.620850	263061.618896	265833.610107	265833.607910	2	1	1.636908	266834.588867	266834.582031	268481.656982	268481.656006	00022	f	1970-01	49.651826	0
58	2	0.446191	270995.176025	270995.173828	271457.565918	271457.564941	3	2	0.386809	272458.693848	272458.686035	272849.666992	272849.666016	00022	f	1970-01	49.651826	0
59	1	0.383615	275361.938965	275361.937012	275761.790039	275761.789062	2	1	0.351488	276763.291016	276763.282959	277129.802979	277129.802002	00022	f	1970-01	49.651826	0
60	1	0.516126	279645.415039	279645.411865	280177.728027	280177.727051	3	2	0.422852	281180.145996	281180.138184	281617.906006	281617.903076	00022	f	1970-01	49.651826	0
61	2	0.448777	284128.788818	284128.787109	284593.822998	284593.822021	3	1	0.430047	285596.767822	285596.760010	286041.893066	286041.892090	00022	f	1970-01	49.651826	1
62	1	0.384123	288545.517822	288545.515869	288945.890869	288945.888916	2	1	0.311898	289947.081055	289947.072021	290273.848877	290273.848145	00022	f	1970-01	49.651826	0
63	2	0.766817	292778.963135	292778.960938	293562.030029	293562.029053	3	1	0.311292	294562.628906	294562.625977	294889.990967	294889.989990	00022	f	1970-01	49.651826	0
64	2	0.509328	297412.415039	297412.413086	297937.993896	297937.992188	3	2	0.327451	298939.083984	298939.076904	299274.039062	299274.037109	00022	f	1970-01	49.651826	0
65	1	0.662676	301779.295898	301779.292969	302458.107910	302458.105957	2	1	0.475054	303459.090820	303459.084961	303938.132080	303938.129883	00022	f	1970-01	49.651826	1
66	1	0.339933	306445.992920	306445.990967	306802.146973	306802.133057	2	1	0.477400	307803.203125	307803.195801	308290.213135	308290.211914	00022	f	1970-01	49.651826	1
67	0	0.000000	323314.747070	323314.734863	0.000000	0.000000
68	1	0.840477	327329.865967	327329.863037	328186.459961	328186.458008	2	1	2.374444	329187.835938	329187.824951	331570.565918	331570.563965	00022	f	1970-01	49.651826	0
69	2	0.410385	334079.899902	334079.898193	334506.520996	334506.520020	2	2	0.416963	335514.924072	335514.909912	335946.568848	335946.567871	00022	f	1970-01	49.651826	0
70	1	0.347031	338463.350098	338463.347900	338826.607910	338826.606934	2	2	0.484230	339831.169189	339831.161865	340330.578125	340330.576904	00022	f	1970-01	49.651826	1
71	1	0.507738	342846.743164	342846.740967	343370.731934	343370.731201	2	2	0.333840	344371.810791	344371.802979	344714.678955	344714.677979	00022	f	1970-01	49.651826	1
72	1	0.604195	347230.178955	347230.177002	347850.711182	347850.708984	2	2	0.451571	348851.902832	348851.895020	349314.792969	349314.791016	00022	f	1970-01	49.651826	1
73	1	0.476252	351830.306885	351830.305176	352322.773926	352322.772949	2	2	0.176747	353323.983887	353323.976074	353506.809814	353506.809082	00022	f	1970-01	49.651826	1
74	1	0.428898	356013.693115	356013.690918	356458.842041	356458.841064	3	2	0.435089	357459.834961	357459.829102	357898.823975	357898.822998	00022	f	1970-01	49.651826	0
75	2	0.420844	360413.783936	360413.781982	360850.887939	360850.886963	3	1	0.531413	361851.272949	361851.270996	362394.915039	362394.913818	00022	f	1970-01	49.651826	1
76	2	0.504835	364913.960938	364913.958984	365434.972900	365434.971924	3	1	0.300106	366436.018799	366436.011963	366747.052002	366747.051025	00022	f	1970-01	49.651826	0
77	2	0.402818	369263.980957	369263.979004	369683.047119	369683.046143	3	2	0.409563	370698.699951	370698.692139	371123.285889	371123.284180	00022	f	1970-01	49.651826	0
78	1	0.420144	373630.741943	373630.739990	374067.137939	374067.136963	2	2	0.473958	375082.024902	375082.016846	375571.073975	375571.072998	00022	f	1970-01	49.651826	1
79	1	0.426183	378080.847900	378080.845947	378523.261963	378523.260010	3	2	0.383336	379524.328857	379524.322021	379915.246094	379915.244141	00022	f	1970-01	49.651826	1
80	1	0.411469	382447.594971	382447.593018	382875.325928	382875.324951	2	2	0.921853	383876.394043	383876.385986	384803.250977	384803.249023	00022	f	1970-01	49.651826	1
81	1	0.488646	387314.371094	387314.368896	387819.359131	387819.356934	3	2	0.196644	388820.438965	388820.431885	389027.395020	389027.393066	00022	f	1970-01	49.651826	0
82	2	0.560037	391531.112793	391531.111084	392107.405762	392107.404053	3	1	0.953240	393108.384033	393108.376953	394067.444092	394067.441895	00022	f	1970-01	49.651826	0
83	1	0.853961	396581.185059	396581.182861	397451.416016	397451.414062	2	2	0.843161	398452.598145	398452.589844	399307.448975	399307.447998	00022	f	1970-01	49.651826	1
84	1	0.411923	401831.402100	401831.398926	402259.476807	402259.474854	2	2	0.033771	403260.534912	403260.527100	403299.472168	403299.469971	00022	f	1970-01	49.651826	1
85	1	0.732461	405814.874023	405814.871094	406563.480957	406563.479004	2	2	0.262388	407565.992188	407565.983887	407843.539062	407843.535889	00022	f	1970-01	49.651826	1
86	1	0.559145	410348.277100	410348.273926	410923.543945	410923.541992	2	2	0.639682	411932.788086	411932.780029	412587.613037	412587.611816	00022	f	1970-01	49.651826	0
87	2	0.626509	415098.240967	415098.239014	415741.037109	415741.034912	3	1	0.582522	416742.131836	416742.125000	417331.766113	417331.763916	00022	f	1970-01	49.651826	0
88	1	0.955145	419848.350098	419848.346924	420819.736816	420819.736084	2	2	0.540326	421820.818848	421820.811035	422371.757080	422371.756104	00022	f	1970-01	49.651826	0
89	2	0.473755	424881.938965	424881.937012	425371.830078	425371.829102	2	1	0.790342	426373.037109	426373.030029	427171.876953	427171.874023	00022	f	1970-01	49.651826	1
90	2	0.585664	429681.888916	429681.886963	430283.895996	430283.893066	3	1	0.369579	431285.423096	431285.365967	431667.887939	431667.886963	00022	f	1970-01	49.651826	1
91	2	0.444940	434198.659912	434198.657959	434659.845947	434659.844971	3	1	1.073889	435660.926025	435660.918945	436740.056885	436740.055176	00022	f	1970-01	49.651826	1
92	2	0.610972	439248.755859	439248.753906	439875.983887	439875.980957	2	1	0.305481	440883.438965	440883.430908	441204.014893	441204.013184	00022	f	1970-01	49.651826	0
93	1	0.464264	443715.510986	443715.508789	444196.034912	444196.032959	3	2	0.484859	445196.370117	445196.367920	445700.072021	445700.071045	00022	f	1970-01	49.651826	1
94	1	0.595528	448232.289062	448232.286865	448844.059814	448844.058105	3	2	0.482612	449845.177002	449845.168945	450332.113037	450332.111084	00022	f	1970-01	49.651826	0
95	2	1.394843	452849.034912	452849.033203	454260.126953	454260.125000	3	1	0.433972	455261.203857	455261.197021	455700.154053	455700.151855	00022	f	1970-01	49.651826	1
96	2	0.372167	458215.816895	458215.814941	458604.234863	458604.232910	2	1	0.444616	459605.312988	459605.304932	460060.194824	460060.193115	00022	f	1970-01	49.651826	0
97	1	0.390083	462565.903809	462565.901855	462972.312012	462972.310059	2	2	0.750018	463973.407959	463973.398926	464732.333008	464732.332031	00022	f	1970-01	49.651826	0
98	1	0.594751	467249.332031	467249.330078	467860.337891	467860.335938	2	1	0.377983	468861.455811	468861.448975	469260.400146	469260.399170	00022	f	1970-01	49.651826	1
99	1	0.302040	471766.086914	471766.084961	472084.396973	472084.395996	2	1	0.377219	473085.500000	473085.492188	473476.427979	473476.427002	00022	f	1970-01	49.651826	1
100	1	0.340737	475999.512939	475999.510986	476356.511963	476356.510986	2	1	0.318502	477357.600830	477357.593994	477684.456055	477684.454834	00022	f	1970-01	49.651826	0
101	2	0.708748	480199.609131	480199.607178	480924.591064	480924.590088	3	1	0.439604	481925.683838	481925.676025	482372.616943	482372.615967	00022	f	1970-01	49.651826	0
102	2	0.513309	484883.146973	484883.143799	485412.605957	485412.604004	3	2	0.323942	486413.689941	486413.681885	486756.720947	486756.718994	00022	f	1970-01	49.651826	0
103	2	0.457884	489266.474854	489266.472168	489740.621094	489740.617920	3	2	0.350790	490741.820068	490741.812012	491100.663818	491100.661865	00022	f	1970-01	49.651826	0
104	1	0.531926	493616.560059	493616.557129	494164.739014	494164.737061	3	1	0.573745	495167.896973	495167.887939	495756.706055	495756.704102	00022	f	1970-01	49.651826	1
105	1	0.321673	498266.658936	498266.656982	498604.675049	498604.672852	2	1	0.404435	499605.755127	499605.747070	500020.816895	500020.816162	00022	f	1970-01	49.651826	1
106	1	0.287117	502533.379150	502533.375977	502836.744873	502836.743164	2	1	0.363037	503837.914062	503837.906982	504212.844971	504212.843994	00022	f	1970-01	49.651826	1
107	1	0.295437	506716.804932	506716.802979	507028.792969	507028.791992	3	1	0.307116	508029.896973	508029.890137	508340.833984	508340.833008	00022	f	1970-01	49.651826	0
108	2	0.538363	510850.207031	510850.204834	511404.829102	511404.827148	2	1	2.108263	512406.053955	512406.045898	514524.892090	514524.890869	00022	f	1970-01	49.651826	0
109	2	0.354977	517033.669922	517033.667969	517404.904053	517404.901855	2	2	0.340201	518406.102783	518406.094971	518756.943848	518756.942871	00022	f	1970-01	49.651826	1
110	2	0.345624	521267.081055	521267.077881	521628.961914	521628.960938	3	2	0.299176	522630.023926	522630.016113	522933.108154	522933.105957	00022	f	1970-01	49.651826	0
111	1	1.770323	525450.524902	525450.522949	527237.105957	527237.104980	3	2	0.426777	528238.227051	528238.218994	528677.065186	528677.063965	00022	f	1970-01	49.651826	1
112	1	0.476892	531183.982178	531183.979980	531677.127197	531677.125977	3	2	0.344967	532678.165771	532678.158936	533029.187988	533029.185059	00022	f	1970-01	49.651826	0
113	2	1.478896	535534.062988	535534.061035	537029.218018	537029.216064	2	1	0.282788	538030.103027	538030.096924	538333.265869	538333.265137	00022	f	1970-01	49.651826	0
114	1	0.282188	540850.842041	540850.840088	541149.281982	541149.280029	3	1	0.278022	542152.125000	542152.117920	542445.240967	542445.239014	00022	f	1970-01	49.651826	0
115	1	0.390209	544950.895020	544950.891846	545357.458008	545357.456787	2	2	0.454056	546358.300049	546358.294922	546821.342041	546821.341064	00022	f	1970-01	49.651826	1
116	1	0.294841	549334.353027	549334.350098	549645.452881	549645.450928	2	2	0.153514	550646.673828	550646.666016	550805.520020	550805.517822	00022	f	1970-01	49.651826	1
117	1	0.439509	553317.755859	553317.753906	553773.518066	553773.517090	2	2	0.989393	554774.792969	554774.784912	555773.503906	555773.502930	00022	f	1970-01	49.651826	0
118	2	0.520690	558284.529053	558284.527100	558821.458008	558821.455811	3	2	1.275618	559822.534912	559822.526855	561109.879883	561109.877930	00022	f	1970-01	49.651826	0
119	1	0.458699	563634.637939	563634.635986	564109.540039	564109.539062	3	1	0.279933	565110.495117	565110.489014	565397.581055	565397.579834	00022	f	1970-01	49.651826	1
120	1	0.423947	567901.380127	567901.377930	568341.583008	568341.581055	2	1	0.278562	569342.767822	569342.760010	569629.673828	569629.672852	00022	f	1970-01	49.651826	1
121	1	0.309935	572151.462891	572151.461182	572477.658936	572477.656006	2	1	0.223818	573478.729980	573478.722168	573709.728027	573709.726074	00022	f	1970-01	49.651826	0
122	2	1.123233	576218.216797	576218.214844	577357.700928	577357.698975	3	1	0.981934	578358.722900	578358.716064	579349.834961	579349.833008	00022	f	1970-01	49.651826	1
123	2	0.465299	581868.322998	581868.320068	582349.870850	582349.869873	2	1	0.061906	583352.989014	583352.980957	583429.922119	583429.919922	00022	f	1970-01	49.651826	0
124	2	0.742559	585935.086914	585935.084961	586693.885986	586693.883789	3	2	0.351791	587694.984863	587694.977051	588053.842041	588053.841064	00022	f	1970-01	49.651826	0
125	2	1.037222	590568.495850	590568.494141	591621.954834	591621.953857	3	1	0.275046	592623.026123	592623.018066	592909.912109	592909.909912	00022	f	1970-01	49.651826	0
126	1	0.323032	595418.582031	595418.580078	595757.867920	595757.865967	2	2	0.333644	596758.937012	596758.929932	597101.948975	597101.947998	00022	f	1970-01	49.651826	0
127	1	0.267073	599618.666016	599618.664062	599901.999023	599901.995850	2	1	0.327776	600903.333984	600903.325928	601246.154053	601246.151855	00022	f	1970-01	49.651826	0
128	1	0.293701	603752.083008	603752.080811	604062.030029	604062.029053	2	2	0.513573	605063.107910	605063.100098	605582.116943	605582.114990	00022	f	1970-01	49.651826	1
129	1	0.312363	608085.500000	608085.498047	608414.106934	608414.106201	2	2	0.394377	609415.225098	609415.216797	609814.209961	609814.208008	00022	f	1970-01	49.651826	1
130	1	0.535013	612318.912842	612318.911133	612870.175049	612870.172852	2	2	0.320196	613886.817871	613886.811035	614222.149170	614222.147949	00022	f	1970-01	49.651826	0
131	2	0.390302	616735.623047	616735.620850	617142.210938	617142.195801	3	1	0.246071	618143.260986	618143.253906	618398.240967	618398.238770	00022	f	1970-01	49.651826	1
132	2	0.327665	620903.979980	620903.976807	621246.328125	621246.326904	3	1	0.297414	622253.236084	622253.230957	622566.240967	622566.239014	00022	f	1970-01	49.651826	1
133	2	0.400164	625085.974854	625085.972900	625502.249023	625502.248047	3	1	0.639395	626503.984863	626503.977051	627158.257812	627158.256104	00022	f	1970-01	49.651826	1
134	1	2.028713	635770.523926	635770.513916	637814.436035	637814.435059	3	2	0.490894	638815.514893	638815.506836	639310.414062	639310.413086	00022	f	1970-01	49.651826	1
135	1	0.554704	641819.477051	641819.474854	642390.437012	642390.435791	2	2	0.204045	643391.501953	643391.494873	643606.590088	643606.589111	00022	f	1970-01	49.651826	1
136	1	0.358041	646136.341064	646136.338867	646510.518066	646510.517090	2	2	0.423068	647511.513916	647511.507080	647942.594971	647942.593994	00022	f	1970-01	49.651826	0
137	2	0.769324	650452.970947	650452.968994	651238.552002	651238.549805	3	1	1.097988	652239.764893	652239.757080	653350.696045	653350.695068	00022	f	1970-01	49.651826	1
138	2	0.440732	655869.739990	655869.738037	656326.745850	656326.744141	3	1	0.550518	657327.753906	657327.747070	657886.653809	657886.652832	00022	f	1970-01	49.651826	1
139	2	0.619262	660403.171875	660403.170166	661038.679932	661038.679199	2	1	0.505854	662039.864990	662039.856934	662558.748047	662558.747070	00022	f	1970-01	49.651826	1
140	2	0.648661	665069.926025	665069.924072	665734.849854	665734.847900	2	1	0.373838	666738.034912	666738.027100	667126.823975	667126.822998	00022	f	1970-01	49.651826	0
141	1	0.353936	669636.671875	669636.670166	670006.858154	670006.856934	2	2	0.699185	671008.024902	671008.017090	671718.913086	671718.912109	00022	f	1970-01	49.651826	0
142	2	0.329918	674236.762939	674236.760986	674582.930908	674582.928955	3	2	0.427043	675583.828857	675583.822998	676014.957764	676014.956055	00022	f	1970-01	49.651826	1
143	2	0.374473	678520.174072	678520.172119	678910.906006	678910.903809	3	2	0.406794	679912.055908	679912.048096	680326.959961	680326.958008	00022	f	1970-01	49.651826	0
144	2	0.297867	682836.921875	682836.919922	683151.045898	683151.044189	3	1	0.596982	684152.111084	684152.103760	684766.964844	684766.962891	00022	f	1970-01	49.651826	0
145	2	0.464366	687270.348145	687270.345947	687750.957031	687750.955078	3	1	0.005075	688752.018799	688752.011963	688775.111816	688775.109863	00022	f	1970-01	49.651826	0
146	2	0.847808	691287.046875	691287.044922	692151.114990	692151.114014	3	2	0.189036	693152.095947	693152.089111	693359.143066	693359.142090	00022	f	1970-01	49.651826	1
147	2	0.336362	695870.469971	695870.466797	696223.086182	696223.084961	3	2	0.314227	697224.258789	697224.250977	697551.137939	697551.136963	00022	f	1970-01	49.651826	0
148	1	0.536236	700070.583984	700070.580811	700623.079102	700623.076904	3	2	0.874160	701623.593018	701623.590820	702511.132812	702511.131104	00022	f	1970-01	49.651826	0
149	1	0.257665	705038.471924	705038.469971	705311.260986	705311.260010	3	1	0.286299	706312.424805	706312.416992	706607.283203	706607.281982	00022	f	1970-01	49.651826	0
150	1	0.486340	709120.781982	709120.780029	709623.399902	709623.397949	3	2	0.466066	710624.566895	710624.558838	711103.244141	711103.241943	00022	f	1970-01	49.651826	0
151	2	0.418215	713620.837891	713620.835938	714055.302979	714055.301025	2	1	1.080765	715056.468994	715056.461182	716151.323975	716151.322021	00022	f	1970-01	49.651826	0
152	1	0.352792	718654.222900	718654.220947	719023.281006	719023.278809	2	1	0.314127	720024.464111	720024.456055	720351.459961	720351.458008	00022	f	1970-01	49.651826	0
153	1	0.352784	722854.326904	722854.324951	723223.346924	723223.344971	2	1	0.609989	724223.753906	724223.750977	724847.378906	724847.376953	00022	f	1970-01	49.651826	0
154	1	0.484762	727354.512939	727354.510986	727855.411133	727855.408936	2	1	0.392637	728856.461914	728856.455078	729263.432861	729263.431885	00022	f	1970-01	49.651826	0
155	2	0.436146	731771.192139	731771.188965	732223.578857	732223.576904	2	2	1.362046	733224.796875	733224.787842	734599.631104	734599.630127	00022	f	1970-01	49.651826	1
156	2	0.486710	737104.607178	737104.604980	737607.571045	737607.568848	2	2	0.370645	738608.789795	738608.781982	738991.614014	738991.611816	00022	f	1970-01	49.651826	1
157	2	0.350643	741504.691162	741504.688965	741871.587891	741871.586914	3	2	0.375836	742872.651123	742872.643799	743263.570068	743263.567871	00022	f	1970-01	49.651826	0
158	1	0.419951	745771.420898	745771.417969	746207.612061	746207.611084	3	1	0.569890	747222.752930	747222.743896	747807.729004	747807.728027	00022	f	1970-01	49.651826	0
159	1	0.293918	750321.496826	750321.495117	750631.675049	750631.674072	2	2	0.041224	751632.741943	751632.734863	751695.770020	751695.768066	00022	f	1970-01	49.651826	1
160	1	0.466598	754204.895020	754204.893066	754687.750977	754687.748779	3	2	0.279154	755689.664062	755689.656006	755983.801025	755983.798828	00022	f	1970-01	49.651826	0
161	1	0.439181	758488.335938	758488.333984	758943.770996	758943.769043	2	2	0.541082	759944.941895	759944.934082	760495.812988	760495.811035	00022	f	1970-01	49.651826	0
162	1	0.690484	763005.211182	763005.208984	763711.826904	763711.825195	3	1	0.326154	764712.889893	764712.883057	765047.864014	765047.863037	00022	f	1970-01	49.651826	1
163	1	0.372412	767555.179932	767555.177979	767943.844971	767943.843018	3	1	0.324998	768944.910889	768944.904053	769279.879150	769279.877930	00022	f	1970-01	49.651826	1
164	1	0.459209	771788.581055	771788.578857	772264.061035	772264.060059	2	1	0.310988	773264.885010	773264.878906	773583.944092	773583.943115	00022	f	1970-01	49.651826	0
165	1	0.319094	776088.626953	776088.625000	776423.976807	776423.975830	2	2	0.265642	777425.032959	777425.025879	777704.034912	777704.034180	00022	f	1970-01	49.651826	1
166	1	0.377751	780222.078125	780222.075928	780616.083984	780616.082031	2	2	0.266104	781617.160156	781617.151855	781888.108887	781888.106934	00022	f	1970-01	49.651826	1
167	1	0.930379	784405.450928	784405.448975	785352.085938	785352.084961	2	2	0.076211	786353.081055	786353.073975	786448.110107	786448.106934	00022	f	1970-01	49.651826	0
168	2	0.476315	788955.573975	788955.572021	789448.143066	789448.139893	3	1	0.016048	790449.114014	790449.106934	790472.240967	790472.237061	00022	f	1970-01	49.651826	0
169	2	0.043058	792988.975098	792988.972900	793048.288086	793048.285889	2	2	0.112148	794049.349121	794049.341797	794184.184082	794184.180908	00022	f	1970-01	49.651826	1
170	2	0.310901	796689.034912	796689.032959	797016.208008	797016.206055	2	2	0.233475	798017.281982	798017.273926	798272.251953	798272.249023	00022	f	1970-01	49.651826	0
171	2	0.498885	800789.123047	800789.120850	801304.268066	801304.264893	3	2	0.190176	802307.171143	802307.163086	802512.376953	802512.375000	00022	f	1970-01	49.651826	1
172	2	0.321508	805022.500000	805022.498047	805360.256836	805360.254883	2	2	0.332078	806360.729980	806360.727051	806704.289795	806704.288818	00022	f	1970-01	49.651826	0
173	2	0.553406	809222.731201	809222.729004	809792.378906	809792.377930	2	1	0.890744	810793.625000	810793.616943	811696.402100	811696.399902	00022	f	1970-01	49.651826	0
174	1	0.322137	814206.027100	814206.025146	814544.429932	814544.427979	2	2	0.292636	815545.614990	815545.607178	815848.390137	815848.387939	00022	f	1970-01	49.651826	1
175	1	0.308162	818356.071045	818356.067871	818680.491943	818680.490967	2	2	0.735518	819681.721924	819681.714111	820424.641113	820424.638916	00022	f	1970-01	49.651826	1
176	1	0.220670	822939.491943	822939.489990	823176.418945	823176.416992	2	2	0.107198	824177.629883	824177.622070	824296.438965	824296.437012	00022	f	1970-01	49.651826	1
177	1	0.450060	826806.364014	826806.360840	827272.582031	827272.579834	3	2	0.015460	828274.291016	828274.282959	828304.806885	828304.803955	00022	f	1970-01	49.651826	0
178	2	0.465306	830823.009033	830823.007080	831304.565918	831304.563965	3	2	1.221841	832307.689941	832307.682129	833544.583008	833544.582031	00022	f	1970-01	49.651826	0
179	2	0.471927	836056.427002	836056.425049	836544.582031	836544.580811	3	1	0.324480	837545.660889	837545.653076	837880.649170	837880.646973	00022	f	1970-01	49.651826	0
180	2	0.458517	840389.817871	840389.815918	840864.593994	840864.593018	3	1	0.295074	841865.675049	841865.666992	842168.693115	842168.692139	00022	f	1970-01	49.651826	1
181	2	0.327141	844673.221924	844673.219971	845016.664062	845016.663086	3	1	0.288209	846017.658936	846017.652100	846312.740967	846312.739990	00022	f	1970-01	49.651826	0
182	2	0.385183	848823.422852	848823.420898	849224.747803	849224.745850	2	1	0.560995	850225.660156	850225.652832	850800.724854	850800.724121	00022	f	1970-01	49.651826	1
183	2	0.317851	853306.715088	853306.713135	853640.826904	853640.825928	2	1	0.400432	854642.009033	854642.000000	855056.920898	855056.918945	00022	f	1970-01	49.651826	0
184	1	0.275095	857573.468018	857573.466064	857864.900146	857864.897949	2	1	0.287026	858865.976074	858865.968018	859160.861816	859160.861084	00022	f	1970-01	49.651826	1
185	1	0.319096	861673.540039	861673.537842	862008.886963	862008.884766	2	1	0.161566	863009.963867	863009.956055	863184.854980	863184.853027	00022	f	1970-01	49.651826	1
186	1	0.462355	865690.287109	865690.283936	866168.888916	866168.886963	3	1	0.634911	867169.969971	867169.961914	867824.913086	867824.912109	00022	f	1970-01	49.651826	0
187	2	0.772374	870340.354980	870340.353027	871128.987061	871128.984863	2	1	0.340827	872130.177979	872130.170166	872480.968994	872480.967041	00022	f	1970-01	49.651826	1
188	2	0.386276	874990.441895	874990.440186	875392.977051	875392.976074	2	1	0.122138	876394.167969	876394.159912	876529.007812	876529.005859	00022	f	1970-01	49.651826	0
189	1	2.160528	879040.517090	879040.514893	881217.299072	881217.297119	3	2	1.599998	882218.286865	882218.281006	883825.117188	883825.115967	00022	f	1970-01	49.651826	1
190	1	0.340252	886340.639160	886340.635986	886697.150879	886697.148926	2	2	0.054141	887698.359863	887698.350830	887761.218994	887761.218018	00022	f	1970-01	49.651826	1
191	1	0.358879	890274.066895	890274.063965	890649.187988	890649.187012	3	2	0.454676	891650.306885	891650.299072	892113.264893	892113.263184	00022	f	1970-01	49.651826	0
192	2	1.320815	894624.159180	894624.156982	895961.229980	895961.228027	3	2	0.283447	896962.341064	896962.333984	897257.348145	897257.345947	00022	f	1970-01	49.651826	0
193	2	0.282748	899774.219971	899774.218018	900073.219971	900073.218994	3	1	1.110736	901075.369141	901075.361084	902201.362061	902201.359863	00022	f	1970-01	49.651826	1
194	2	0.309313	904707.675049	904707.673096	905033.342041	905033.339844	2	1	0.271798	906034.408936	906034.402100	906313.375000	906313.373047	00022	f	1970-01	49.651826	1
195	2	0.704723	908824.413086	908824.409912	909545.387939	909545.386963	3	1	0.299991	910546.400879	910546.394043	910857.432129	910857.430908	00022	f	1970-01	49.651826	0
196	1	0.258707	913374.457031	913374.454834	913649.423096	913649.421875	3	1	0.287005	914650.489990	914650.483154	914945.454102	914945.452881	00022	f	1970-01	49.651826	0
197	1	0.295408	917457.902832	917457.900879	917769.563965	917769.562988	2	2	0.266709	918769.944824	918769.942871	919057.642822	919057.641846	00022	f	1970-01	49.651826	1
198	1	0.322633	921574.626953	921574.625000	921913.528809	921913.527832	2	2	0.220878	922914.581055	922914.573975	923145.542969	923145.541992	00022	f	1970-01	49.651826	1
199	1	0.239197	925658.056885	925658.054932	925913.499023	925913.496826	2	2	0.845139	926914.695068	926914.686035	927769.591064	927769.588867	00022	f	1970-01	49.651826	0
200	2	0.310447	930274.791992	930274.790039	930601.594971	930601.593994	3	1	0.329462	931602.036865	931602.034912	931937.634033	931937.633057	00022	f	1970-01	49.651826	0