
trial	choice1	rts1	stim1ons_sl	stim1ons_ms	choice1ons_sl	choice1ons_ms	state	choice2	rts2	stim2ons_sl	stim2ons_ms	choice2ons_sl	choice2ons_ms	SC_ID	gender	DOB	age	won

1	1	1.292399	141.253906	141.252197	1448.405029	1448.403076	2	2	1.558623	2451.968018	2451.958008	4031.373047	4031.371094	00002	f	1970-01	49.315753	1
2	1	0.419540	6539.940186	6539.937988	6975.615967	6975.614014	2	2	0.729433	7979.353027	7979.335205	8719.371094	8719.367920	00002	f	1970-01	49.315753	0
3	1	0.599385	11240.015137	11240.013184	11855.512207	11855.509033	2	2	1.342511	12858.596191	12858.588135	14215.371094	14215.369141	00002	f	1970-01	49.315753	0
4	1	0.579937	16723.413086	16723.411133	17319.433105	17319.431152	2	1	0.675856	18321.204102	18321.197021	19015.456055	19015.454102	00002	f	1970-01	49.315753	1
5	1	0.652039	21524.277100	21524.274170	22191.605225	22191.604248	2	1	0.880672	23200.932129	23200.921143	24103.678955	24103.677002	00002	f	1970-01	49.315753	0
6	1	1.096000	26623.512939	26623.511230	27735.645996	27735.644043	2	1	0.971761	28736.273193	28736.270020	29711.585938	29711.584229	00002	f	1970-01	49.315753	1
7	1	0.647776	32223.499023	32223.497070	32887.525146	32887.521973	2	1	0.765032	33888.021973	33888.019043	34671.550049	34671.549072	00002	f	1970-01	49.315753	0
8	1	0.561226	37190.315918	37190.314209	37767.652100	37767.650146	2	1	0.841751	38774.936035	38774.927246	39631.659180	39631.657227	00002	f	1970-01	49.315753	1
9	1	0.635016	42140.411133	42140.408203	42791.649170	42791.648193	3	2	1.321058	43793.335938	43793.329102	45127.709229	45127.707031	00002	f	1970-01	49.315753	1
10	1	0.583097	47640.373047	47640.370117	48239.728027	48239.712891	3	1	1.502943	49242.372070	49242.357910	50759.666992	50759.666016	00002	f	1970-01	49.315753	1
11	1	0.541669	53273.791992	53273.790283	53831.690186	53831.689209	2	1	1.246155	54832.786133	54832.778076	56087.846191	56087.844238	00002	f	1970-01	49.315753	1
12	2	1.241085	58590.522217	58590.520264	59847.854248	59847.853027	3	1	1.879034	60849.182129	60849.174072	62735.837891	62735.836182	00002	f	1970-01	49.315753	1
13	2	0.607018	65240.625244	65240.623047	65863.908203	65863.906250	2	1	1.126177	66865.394287	66865.381104	67999.893066	67999.892090	00002	f	1970-01	49.315753	1
14	2	0.867622	70524.033203	70524.031006	71407.882080	71407.881104	2	1	0.784231	72408.417969	72408.415039	73207.947998	73207.946045	00002	f	1970-01	49.315753	0
15	2	0.547529	75724.110107	75724.108154	76287.886230	76287.884033	3	1	1.036862	77288.286865	77288.285156	78343.879150	78343.877197	00002	f	1970-01	49.315753	1
16	2	0.566135	80857.494141	80857.491943	81439.875244	81439.873047	3	1	0.918794	82443.058105	82443.049072	83375.900146	83375.899170	00002	f	1970-01	49.315753	1
17	2	0.820776	85890.907959	85890.906250	86727.915039	86727.913086	3	1	0.858896	87729.337891	87729.331055	88600.011230	88600.009033	00002	f	1970-01	49.315753	0
18	2	0.708077	91107.648193	91107.645996	91831.955078	91831.953125	3	1	0.870073	92832.452148	92832.448975	93712.092041	93712.091064	00002	f	1970-01	49.315753	0
19	2	0.959389	96224.517090	96224.514893	97200.003174	97200.001953	2	1	0.935617	98201.071045	98201.064209	99144.001953	99144.000977	00002	f	1970-01	49.315753	0
20	2	0.877990	101657.916992	101657.914062	102552.031006	102552.029297	3	2	0.986125	103553.116211	103553.108887	104544.166992	104544.165283	00002	f	1970-01	49.315753	0
21	1	1.118064	107057.980225	107057.978027	108192.171143	108192.167969	2	1	0.888477	109193.356201	109193.347900	110096.060059	110096.056885	00002	f	1970-01	49.315753	1
22	1	0.535918	112607.943115	112607.939941	113160.093994	113160.092285	3	2	1.465851	114161.338135	114161.329102	115640.175049	115640.174316	00002	f	1970-01	49.315753	0
23	1	0.609966	118158.015137	118158.013184	118784.225098	118784.224121	2	1	0.752486	119792.608154	119792.601074	120560.198975	120560.197998	00002	f	1970-01	49.315753	0
24	1	0.580532	123091.421143	123091.418945	123688.219971	123688.219238	3	1	0.811866	124688.704102	124688.702148	125504.266113	125504.250977	00002	f	1970-01	49.315753	1
25	1	0.599836	128008.155273	128008.152100	128624.243164	128624.241211	2	1	1.287046	129626.733154	129626.717041	130928.228271	130928.227051	00002	f	1970-01	49.315753	1
26	1	0.574437	133441.569092	133441.566895	134032.239014	134032.237061	2	1	0.734968	135033.921143	135033.906006	135776.259033	135776.257080	00002	f	1970-01	49.315753	1
27	1	0.364397	138291.635986	138291.633301	138672.257080	138672.256104	2	1	1.085027	139673.770020	139673.758057	140776.296143	140776.293945	00002	f	1970-01	49.315753	0
28	2	1.148390	143291.868896	143291.867188	144456.329102	144456.327881	3	1	1.037603	145459.774902	145459.767090	146512.336182	146512.333008	00002	f	1970-01	49.315753	1
29	2	0.502960	149025.110107	149025.107178	149544.309082	149544.308105	2	1	0.842245	150545.481934	150545.474121	151400.411133	151400.407959	00002	f	1970-01	49.315753	1
30	2	0.811247	153925.149902	153925.147217	154752.638184	154752.635986	3	1	0.817877	155753.710938	155753.704102	156576.533203	156576.531006	00002	f	1970-01	49.315753	1
31	2	0.523785	159108.588135	159108.586182	159648.637939	159648.636230	3	1	0.758135	160649.858154	160649.850098	161416.417236	161416.414062	00002	f	1970-01	49.315753	1
32	2	0.386887	163925.362061	163925.360107	164328.453125	164328.450928	3	1	1.042826	165329.644043	165329.635254	166384.506104	166384.504150	00002	f	1970-01	49.315753	1
33	2	0.476157	168892.048096	168892.046143	169384.452148	169384.449951	2	1	0.703008	170385.427979	170385.421143	171096.473145	171096.471191	00002	f	1970-01	49.315753	1
34	2	0.447533	173608.905029	173608.903076	174072.569092	174072.567139	2	1	0.748732	175073.641113	175073.633057	175840.556152	175840.552979	00002	f	1970-01	49.315753	1
35	2	0.721451	178358.854004	178358.852295	179096.534180	179096.532227	3	1	0.811853	180097.609131	180097.601074	180920.664062	180920.661133	00002	f	1970-01	49.315753	0
36	1	0.822720	183425.712158	183425.709961	184264.542236	184264.540039	2	1	0.595698	185265.749023	185265.741211	185872.613037	185872.610107	00002	f	1970-01	49.315753	0
37	1	1.264778	188377.531982	188377.530029	189656.676025	189656.675049	2	1	0.709326	190657.720215	190657.712891	191384.645996	191384.645020	00002	f	1970-01	49.315753	1
38	1	0.524028	193892.401123	193892.398193	194432.662109	194432.661133	3	1	1.005496	195433.752197	195433.745117	196448.811035	196448.809082	00002	f	1970-01	49.315753	1
39	1	0.489278	198959.140137	198959.137939	199464.671143	199464.667969	3	1	0.669357	200465.795166	200465.786865	201144.835938	201144.834961	00002	f	1970-01	49.315753	1
40	1	0.493287	203659.309082	203659.302002	204168.726074	204168.725098	2	1	0.872709	205169.957031	205169.949951	206048.743896	206048.742188	00002	f	1970-01	49.315753	1
41	1	0.425357	208559.263916	208559.262207	209000.858154	209000.857178	3	1	0.711145	210010.616211	210010.607178	210736.782227	210736.781250	00002	f	1970-01	49.315753	1
42	1	1.629821	213242.845215	213242.843262	214888.755127	214888.754150	2	1	0.603188	215889.725098	215889.718018	216496.819092	216496.817139	00002	f	1970-01	49.315753	1
43	1	0.639140	219009.415283	219009.413086	219664.808105	219664.806152	3	1	0.556205	220665.880127	220665.872070	221232.980957	221232.979004	00002	f	1970-01	49.315753	0
44	1	0.425910	223742.815918	223742.814209	224184.967041	224184.966064	2	1	0.607660	225194.179199	225194.170898	225816.839111	225816.837158	00002	f	1970-01	49.315753	1
45	1	0.394478	228326.300293	228326.297119	228736.895996	228736.895020	2	1	0.865984	229737.228027	229737.226074	230608.993164	230608.991211	00002	f	1970-01	49.315753	0
46	1	1.146487	233126.400879	233126.398193	234289.052002	234289.048096	2	1	0.555034	235289.614014	235289.610107	235849.029053	235849.026855	00002	f	1970-01	49.315753	0
47	2	0.473201	238359.833008	238359.831055	238849.138916	238849.137207	3	1	0.557333	239850.337158	239850.328857	240416.915039	240416.914062	00002	f	1970-01	49.315753	0
48	2	0.330409	242926.378174	242926.376221	243273.015137	243273.014160	2	1	0.724387	244274.499023	244274.487061	245017.137939	245017.136230	00002	f	1970-01	49.315753	1
49	2	0.514388	247526.447021	247526.444092	248057.088135	248057.085938	2	1	0.724975	249058.154053	249058.145996	249801.161133	249801.159180	00002	f	1970-01	49.315753	1
50	2	0.506303	252326.620117	252326.617920	252849.056152	252849.055176	2	1	0.931767	253850.260010	253850.250977	254793.021973	254793.020020	00002	f	1970-01	49.315753	1
51	2	0.339006	257310.031006	257310.028076	257665.209229	257665.207275	3	1	1.315205	258666.769043	258666.757080	259993.116211	259993.114014	00002	f	1970-01	49.315753	1
52	2	0.522884	262510.014160	262510.010986	263049.139160	263049.138184	3	1	0.981414	264050.225098	264050.218262	265041.104248	265041.103271	00002	f	1970-01	49.315753	1
53	2	0.600849	267560.083252	267560.081055	268177.176025	268177.175049	3	1	0.720067	269178.350098	269178.341309	269913.186035	269913.185059	00002	f	1970-01	49.315753	1
54	2	0.446233	272426.816895	272426.815186	272889.288086	272889.286133	2	1	0.706362	273890.356201	273890.349121	274601.293213	274601.292236	00002	f	1970-01	49.315753	1
55	2	0.674797	277110.216309	277110.214111	277801.293213	277801.290039	3	1	0.943009	278802.361084	278802.353271	279753.282227	279753.280029	00002	f	1970-01	49.315753	1
56	1	0.076011	282276.982178	282276.979980	282369.212158	282369.209961	2	1	0.495985	283378.300049	283378.292236	283889.308105	283889.306152	00002	f	1970-01	49.315753	1
57	1	0.503426	286393.680176	286393.677979	286913.355225	286913.353027	2	1	0.737974	287927.569092	287927.566162	288681.299072	288681.298096	00002	f	1970-01	49.315753	1
58	1	0.511341	291193.803955	291193.802246	291721.327148	291721.326172	2	1	0.650622	292722.432129	292722.424072	293377.357910	293377.357178	00002	f	1970-01	49.315753	1
59	1	0.387316	295893.919922	295893.917969	296297.466064	296297.462891	2	1	0.779333	297298.713867	297298.706055	298089.502197	298089.501221	00002	f	1970-01	49.315753	1
60	1	0.319356	300594.681152	300594.679199	300929.479248	300929.477051	3	1	0.609850	301930.680176	301930.671875	302553.414062	302553.412109	00002	f	1970-01	49.315753	0
61	2	0.788548	305060.604980	305060.602051	305865.401123	305865.400146	2	1	0.899788	306866.466064	306866.459229	307777.435059	307777.434082	00002	f	1970-01	49.315753	1
62	2	0.595191	310294.036133	310294.033936	310905.453857	310905.451172	2	1	1.017739	311906.537109	311906.529053	312929.563965	312929.562988	00002	f	1970-01	49.315753	1
63	2	0.541125	315444.189209	315444.186035	316001.497070	316001.496094	2	1	0.718802	317002.477051	317002.469971	317729.528076	317729.525146	00002	f	1970-01	49.315753	1
64	2	0.749156	320244.270996	320244.268066	321009.552979	321009.551025	3	1	0.774331	322011.928223	322011.920898	322801.592041	322801.589111	00002	f	1970-01	49.315753	1
65	2	0.474473	325310.897217	325310.894043	325801.604004	325801.602295	2	1	0.774741	326802.578125	326802.572021	327585.577148	327585.574219	00002	f	1970-01	49.315753	0
66	1	0.571018	330094.483154	330094.480957	330681.554199	330681.553223	2	1	0.507603	331682.624268	331682.616943	332201.593018	332201.591064	00002	f	1970-01	49.315753	0
67	1	0.897488	345129.537109	345129.528076	346041.674072	346041.672119	2	1	0.580917	347042.864014	347042.855957	347641.776123	347641.773926	00002	f	1970-01	49.315753	0
68	2	0.712144	350161.360107	350161.358154	350889.734131	350889.732178	2	1	0.882409	351890.809082	351890.802246	352777.750977	352777.750000	00002	f	1970-01	49.315753	0
69	2	0.970875	355294.644287	355294.642090	356281.775146	356281.772217	2	2	0.827504	357282.849121	357282.842041	358121.864014	358121.862061	00002	f	1970-01	49.315753	0
70	1	0.717645	360628.183105	360628.181152	361361.941162	361361.938965	3	1	0.648052	362363.148926	362363.141113	363025.782227	363025.781006	00002	f	1970-01	49.315753	1
71	1	0.568992	365544.749023	365544.747070	366130.012207	366130.010254	2	1	0.808714	367146.043213	367146.033936	367969.822021	367969.821045	00002	f	1970-01	49.315753	0
72	1	1.667491	370478.269043	370478.267090	372161.881104	372161.879150	3	1	0.648119	373163.463135	373163.455078	373825.984131	373825.983154	00002	f	1970-01	49.315753	1
73	1	0.592781	376344.913086	376344.911133	376953.938965	376953.937012	3	1	0.718904	377955.016113	377955.008057	378681.879150	378681.877197	00002	f	1970-01	49.315753	0
74	2	1.790688	381197.364258	381197.361084	383001.915039	383001.914062	2	1	0.510360	384003.437988	384003.426025	384521.945068	384521.944092	00002	f	1970-01	49.315753	0
75	2	0.380616	387045.156982	387045.154053	387441.939209	387441.937988	3	2	0.732508	388443.011963	388443.004150	389193.961182	389193.958984	00002	f	1970-01	49.315753	1
76	2	0.441948	391711.885986	391711.884033	392169.984131	392169.980957	2	2	0.750724	393171.050049	393171.041992	393930.049072	393930.048096	00002	f	1970-01	49.315753	1
77	2	1.252653	396445.297119	396445.295166	397714.105225	397714.103027	2	2	0.593881	398715.273193	398715.265137	399322.093994	399322.092041	00002	f	1970-01	49.315753	1
78	2	0.533512	401828.614014	401828.612061	402378.389160	402378.386963	3	2	0.631131	403380.118164	403380.106934	404026.122070	404026.121094	00002	f	1970-01	49.315753	1
79	2	0.640588	406545.468262	406545.466064	407202.187988	407202.186279	3	2	0.741168	408203.359131	408203.351074	408954.204102	408954.201904	00002	f	1970-01	49.315753	0
80	1	1.323741	411462.211182	411462.208984	412802.168213	412802.166992	3	2	0.893070	413803.264160	413803.256104	414706.239990	414706.238037	00002	f	1970-01	49.315753	0
81	1	0.301851	417212.218994	417212.216309	417530.267090	417530.265137	2	1	0.641158	418531.481201	418531.472900	419186.308105	419186.306885	00002	f	1970-01	49.315753	0
82	1	0.434418	421695.712158	421695.709961	422146.237305	422146.236084	3	2	1.944419	423147.357910	423147.350098	425106.329102	425106.328125	00002	f	1970-01	49.315753	0
83	1	0.501663	427612.322998	427612.321289	428130.218994	428130.218018	2	1	0.753034	429131.295898	429131.288086	429898.331055	429898.330078	00002	f	1970-01	49.315753	0
84	2	0.837747	432412.591064	432412.588135	433266.368164	433266.366943	2	1	1.139524	434267.884033	434267.871094	435418.286133	435418.285156	00002	f	1970-01	49.315753	0
85	2	0.665013	437929.245117	437929.242188	438610.409180	438610.408203	2	2	0.549579	439614.118164	439614.105957	440178.430176	440178.427002	00002	f	1970-01	49.315753	1
86	2	0.426359	442695.864014	442695.862061	443138.458984	443138.458008	2	2	1.255159	444139.454102	444139.447021	445402.503906	445402.503174	00002	f	1970-01	49.315753	1
87	2	0.241583	447912.596924	447912.594238	448170.419922	448170.418945	2	2	0.591294	449170.903076	449170.900146	449770.494141	449770.493164	00002	f	1970-01	49.315753	1
88	2	0.378902	452279.456299	452279.453125	452674.469971	452674.468018	3	2	0.994677	453675.461182	453675.452881	454674.485107	454674.482178	00002	f	1970-01	49.315753	0
89	1	0.630844	457179.519043	457179.517090	457826.482178	457826.481201	2	2	0.660777	458827.230957	458827.226074	459506.552002	459506.551025	00002	f	1970-01	49.315753	0
90	1	0.229426	462012.759033	462012.756104	462258.426025	462258.425049	2	2	1.347379	463264.177246	463264.168945	464626.554932	464626.553223	00002	f	1970-01	49.315753	0
91	1	1.016791	467131.424072	467131.422119	468162.564209	468162.562256	2	1	0.711305	469163.946045	469163.938965	469890.527100	469890.525146	00002	f	1970-01	49.315753	0
92	2	0.710120	472396.357178	472396.354980	473122.606201	473122.604248	3	2	0.761039	474123.675049	474123.666992	474890.552002	474890.551025	00002	f	1970-01	49.315753	0
93	2	0.094297	477396.433105	477396.430908	477506.862061	477506.859131	3	1	0.937665	478508.112061	478508.103271	479450.611084	479450.608154	00002	f	1970-01	49.315753	0
94	1	0.671364	481963.163086	481963.161133	482650.740234	482650.738037	3	2	1.156035	483651.917969	483651.909180	484818.820068	484818.818115	00002	f	1970-01	49.315753	1
95	1	0.904773	487329.858154	487329.855957	488250.833984	488250.832031	2	2	1.018884	489252.037109	489252.029053	490282.693115	490282.691895	00002	f	1970-01	49.315753	0
96	1	1.837978	492796.641113	492796.638916	494650.739014	494650.738037	2	2	1.435840	495651.145020	495651.143066	497098.760254	497098.759033	00002	f	1970-01	49.315753	1
97	1	0.389222	499613.437012	499613.435059	500018.784180	500018.782227	2	2	0.860681	501031.232178	501031.224121	501907.026123	501907.024170	00002	f	1970-01	49.315753	1
98	1	0.741422	504413.460938	504413.459229	505171.039062	505171.035156	2	2	0.597725	506172.550049	506172.537109	506778.835205	506778.833252	00002	f	1970-01	49.315753	0
99	1	1.065728	509296.916992	509296.915039	510378.848145	510378.847168	3	2	1.790424	511381.771240	511381.757080	513186.922119	513186.921143	00002	f	1970-01	49.315753	0
100	2	0.489770	515696.988037	515696.986084	516202.885254	516202.883057	3	1	0.667877	517203.876953	517203.871094	517882.985107	517882.982910	00002	f	1970-01	49.315753	0
101	2	0.653727	520397.056152	520397.053955	521066.922119	521066.920166	2	2	0.698990	522068.119141	522068.110107	522778.929932	522778.928955	00002	f	1970-01	49.315753	1
102	2	0.465831	525297.131104	525297.128906	525779.076172	525779.073975	2	2	0.678233	526781.656982	526781.649170	527474.949219	527474.946045	00002	f	1970-01	49.315753	1
103	2	0.454303	529980.444092	529980.441162	530450.956055	530450.955078	2	2	0.659668	531452.145996	531452.137939	532123.120117	532123.117920	00002	f	1970-01	49.315753	1
104	2	0.459592	534647.141113	534647.139160	535123.092041	535123.090088	3	2	0.784855	536124.289062	536124.281006	536915.015137	536915.014160	00002	f	1970-01	49.315753	1
105	2	1.052300	539430.671875	539430.670166	540499.187012	540499.186035	3	2	0.737521	541500.879150	541500.864014	542251.084229	542251.083252	00002	f	1970-01	49.315753	0
106	2	0.454977	544764.087891	544764.086182	545235.173096	545235.171143	3	2	0.684095	546236.526123	546236.514160	546931.217041	546931.215088	00002	f	1970-01	49.315753	1
107	2	0.651500	549447.464111	549447.462158	550115.088135	550115.086182	2	2	0.712782	551116.266113	551116.258301	551843.163086	551843.162109	00002	f	1970-01	49.315753	1
108	2	0.495451	554348.389160	554348.386963	554859.130127	554859.127930	2	2	0.714765	555860.214111	555860.207031	556595.207031	556595.206055	00002	f	1970-01	49.315753	1
109	2	0.424873	559114.274170	559114.272217	559555.283203	559555.281006	3	2	0.629699	560556.750977	560556.738281	561195.187256	561195.185059	00002	f	1970-01	49.315753	1
110	2	0.800680	563714.312988	563714.311279	564531.230957	564531.229004	3	2	0.855967	565531.631104	565531.629150	566403.224121	566403.222168	00002	f	1970-01	49.315753	0
111	2	0.696722	568914.413086	568914.410156	569627.264160	569627.260986	2	2	0.547965	570628.345947	570628.338135	571195.268066	571195.265137	00002	f	1970-01	49.315753	0
112	1	0.584684	573714.479004	573714.476074	574315.298096	574315.294922	2	2	0.480717	575316.385986	575316.379150	575811.488281	575811.485107	00002	f	1970-01	49.315753	0
113	1	0.544725	578316.308105	578316.306152	578875.394043	578875.391113	3	2	1.209992	579876.503906	579876.497070	581091.416260	581091.414062	00002	f	1970-01	49.315753	0
114	1	0.844637	583614.609131	583614.607178	584475.362061	584475.359863	3	1	0.417944	585475.765137	585475.763184	585899.475098	585899.472900	00002	f	1970-01	49.315753	0
115	2	0.388043	588431.314941	588431.311279	588835.508057	588835.506104	3	2	0.643832	589836.572021	589836.564209	590491.423096	590491.421143	00002	f	1970-01	49.315753	1
116	2	0.405211	592998.083252	592998.081055	593419.428223	593419.425049	3	2	0.578722	594420.503174	594420.496094	595011.537109	595011.534912	00002	f	1970-01	49.315753	1
117	2	0.400500	597517.092041	597517.090088	597931.419189	597931.417969	3	2	0.543770	598932.512207	598932.503906	599491.462158	599491.460205	00002	f	1970-01	49.315753	1
118	2	0.156481	602014.868164	602014.864990	602187.493164	602187.490967	3	2	0.468908	603188.473877	603188.467041	603667.560059	603667.557129	00002	f	1970-01	49.315753	1
119	2	1.677868	606181.607910	606181.605225	607875.623047	607875.622070	2	2	0.761497	608876.709961	608876.703125	609643.610107	609643.609131	00002	f	1970-01	49.315753	0
120	2	0.063038	612148.616211	612148.614014	612227.536865	612227.535156	3	2	0.483125	613228.019043	613228.016113	613715.528076	613715.526123	00002	f	1970-01	49.315753	1
121	2	0.435651	616231.692139	616231.689941	616683.583984	616683.583008	3	2	0.601753	617684.756104	617684.747070	618299.685059	618299.684082	00002	f	1970-01	49.315753	1
122	2	0.524381	620815.105957	620815.103027	621355.615234	621355.612061	3	2	0.470620	622356.592041	622356.584961	622835.670898	622835.656006	00002	f	1970-01	49.315753	0
123	2	0.535096	625348.496094	625348.494141	625899.714111	625899.712158	3	2	0.464988	626900.886963	626900.877930	627379.745117	627379.743164	00002	f	1970-01	49.315753	0
124	2	0.657029	629898.556152	629898.554199	630571.708984	630571.707031	3	2	0.516823	631572.772949	631572.765137	632099.807129	632099.806152	00002	f	1970-01	49.315753	1
125	2	0.355629	634631.958984	634631.957031	635003.716064	635003.714111	3	2	0.732805	636004.789062	636004.781006	636747.712158	636747.709961	00002	f	1970-01	49.315753	0
126	2	0.810268	639265.354004	639265.352051	640091.746094	640091.743896	3	2	0.417008	641092.799072	641092.791016	641515.840088	641515.839111	00002	f	1970-01	49.315753	0
127	2	0.331509	644032.110107	644032.107178	644379.759033	644379.758057	3	2	0.349389	645383.395020	645383.386230	645747.737061	645747.736084	00002	f	1970-01	49.315753	0
128	2	0.634224	648265.477051	648265.475098	648915.827148	648915.825195	3	1	0.448035	649916.985107	649916.977051	650379.749023	650379.748047	00002	f	1970-01	49.315753	0
129	2	0.432917	652898.872070	652898.870117	653347.911133	653347.908936	3	2	0.590684	654349.791992	654349.785156	654955.802002	654955.801025	00002	f	1970-01	49.315753	0
130	1	1.370071	657465.598145	657465.594971	658851.891113	658851.889160	3	1	1.593920	659852.757080	659852.751953	661459.917236	661459.915039	00002	f	1970-01	49.315753	1
131	1	0.814070	663965.736084	663965.733154	664795.928955	664795.927979	2	2	1.628703	665797.017090	665797.009033	667444.005127	667444.004150	00002	f	1970-01	49.315753	0
132	1	0.390825	669948.997070	669948.995117	670356.082031	670356.080078	2	1	0.412999	671356.581055	671356.575928	671779.984131	671779.982178	00002	f	1970-01	49.315753	0
133	2	0.369262	674284.395020	674284.393066	674667.954102	674667.951172	2	2	1.505902	675669.419189	675669.407227	677188.009033	677188.008057	00002	f	1970-01	49.315753	1
134	2	1.320423	694500.310059	694500.300049	695836.138916	695836.137939	2	1	0.715134	696837.329102	696837.321045	697564.222168	697564.221191	00002	f	1970-01	49.315753	0
135	2	0.385181	700082.766113	700082.764160	700484.178223	700484.176025	3	2	0.737166	701485.342041	701485.333008	702236.288086	702236.285889	00002	f	1970-01	49.315753	0
136	2	1.222462	704749.602051	704749.600098	705988.187012	705988.185059	3	1	0.908919	706989.197998	706989.190186	707908.214111	707908.211914	00002	f	1970-01	49.315753	0
137	1	0.419667	710416.395020	710416.392090	710852.175049	710852.174072	2	1	0.681644	711866.664062	711866.661133	712564.309082	712564.307861	00002	f	1970-01	49.315753	0
138	1	0.465034	715083.106201	715083.104248	715564.270996	715564.270020	2	2	0.757590	716567.687988	716567.678955	717340.276123	717340.274170	00002	f	1970-01	49.315753	1
139	1	0.258322	719849.834961	719849.833008	720124.293213	720124.291016	2	2	0.533947	721125.456055	721125.447998	721668.385010	721668.382080	00002	f	1970-01	49.315753	1
140	1	0.676879	724183.257080	724183.254150	724876.318115	724876.317139	2	2	1.040825	725884.751221	725884.737061	726940.304199	726940.303223	00002	f	1970-01	49.315753	1
141	1	1.258529	729449.947266	729449.944092	730724.626221	730724.624023	2	2	0.566814	731734.392090	731734.385010	732316.399170	732316.396973	00002	f	1970-01	49.315753	0
142	1	0.642798	734833.385986	734833.383057	735492.419922	735492.417236	2	2	0.727191	736493.382080	736493.375000	737228.348145	737228.347168	00002	f	1970-01	49.315753	0
143	1	0.622848	739733.427979	739733.426025	740372.410156	740372.406982	2	2	1.765427	741373.719971	741373.712158	743148.463135	743148.461182	00002	f	1970-01	49.315753	0
144	1	0.449440	745666.880127	745666.877197	746132.431152	746132.430176	2	1	0.486852	747134.673096	747134.665039	747636.594971	747636.593994	00002	f	1970-01	49.315753	1
145	1	0.502125	750150.268066	750150.265869	750668.510986	750668.510010	2	1	0.585332	751669.678955	751669.671143	752268.510254	752268.508057	00002	f	1970-01	49.315753	0
146	1	0.892788	754783.665039	754783.663086	755692.593994	755692.593262	2	2	0.847264	756693.665039	756693.656982	757548.629150	757548.613037	00002	f	1970-01	49.315753	0
147	2	0.305377	760067.361084	760067.358154	760388.632080	760388.631104	3	2	0.524724	761389.706299	761389.697998	761924.786133	761924.783936	00002	f	1970-01	49.315753	0
148	2	0.337984	764450.356934	764450.355225	764804.575928	764804.574951	2	1	2.187924	765805.741211	765805.732910	768004.639160	768004.636963	00002	f	1970-01	49.315753	0
149	2	0.447290	770517.225098	770517.223145	770980.628906	770980.627197	3	1	0.924538	771981.679932	771981.672119	772924.673096	772924.672119	00002	f	1970-01	49.315753	1
150	2	0.714848	775434.298096	775434.294922	776164.974121	776164.972168	3	1	0.949305	777168.489990	777168.482178	778132.890869	778132.890137	00002	f	1970-01	49.315753	1
151	2	0.593977	780650.578125	780650.574951	781260.791016	781260.789062	3	1	0.537121	782268.577148	782268.569092	782820.765137	782820.763184	00002	f	1970-01	49.315753	1
152	2	0.174620	785334.088135	785334.085938	785524.843994	785524.843018	2	1	1.334207	786525.874268	786525.866943	787868.848145	787868.845947	00002	f	1970-01	49.315753	0
153	2	1.284605	790384.166992	790384.165039	791684.895020	791684.893066	2	2	0.472378	792686.364014	792686.351074	793172.795166	793172.794189	00002	f	1970-01	49.315753	0
154	1	0.496471	795684.097168	795684.095215	796196.906982	796196.905273	2	1	2.187672	797197.247070	797197.245117	799404.809082	799404.807129	00002	f	1970-01	49.315753	0
155	1	0.367059	801917.659180	801917.657227	802300.945068	802300.944092	2	2	0.783652	803302.196045	803302.187988	804100.896240	804100.895020	00002	f	1970-01	49.315753	1
156	1	0.675051	806617.694092	806617.691162	807308.866943	807308.865234	3	2	2.494178	808309.939209	808309.932129	810813.038086	810813.036133	00002	f	1970-01	49.315753	0
157	1	0.606893	813318.046143	813318.042969	813940.913086	813940.912109	2	2	1.116660	814941.970215	814941.962158	816068.975098	816068.974121	00002	f	1970-01	49.315753	0
158	1	0.691687	818601.226074	818601.223877	819309.044189	819309.041992	2	1	0.494046	820310.096924	820310.090088	820813.059082	820813.058105	00002	f	1970-01	49.315753	1
159	1	0.830997	823318.080078	823318.078125	824165.133057	824165.131104	2	1	0.484821	825165.663086	825165.660156	825669.014893	825669.013916	00002	f	1970-01	49.315753	0
160	1	0.540238	828184.687256	828184.685059	828741.074219	828741.073242	2	1	0.493907	829742.457275	829742.448242	830245.071045	830245.070068	00002	f	1970-01	49.315753	0
161	2	0.605052	832768.119141	832768.115967	833389.281006	833389.279297	3	1	2.244153	834390.459229	834390.450928	836645.178223	836645.176025	00002	f	1970-01	49.315753	1
162	2	0.309536	839151.410156	839151.407959	839477.172119	839477.170898	2	1	1.278841	840478.230957	840478.223145	841765.132080	841765.131104	00002	f	1970-01	49.315753	0
163	2	0.384760	844270.071045	844270.067871	844669.163086	844669.162109	3	2	0.472638	845670.339111	845670.331055	846157.150146	846157.149170	00002	f	1970-01	49.315753	1
164	2	0.408072	848684.861084	848684.858154	849109.172119	849109.170898	3	1	1.110501	850110.240967	850110.235107	851229.268066	851229.265869	00002	f	1970-01	49.315753	1
165	2	0.710101	853735.163086	853735.158936	854461.283936	854461.281982	2	2	0.864123	855462.358887	855462.351074	856333.266113	856333.264160	00002	f	1970-01	49.315753	1
166	2	0.057371	858851.663086	858851.661133	858925.284180	858925.282959	3	1	1.078424	859926.465088	859926.456055	861013.301270	861013.298096	00002	f	1970-01	49.315753	0
167	2	0.142626	863518.523926	863518.521240	863677.276123	863677.273926	3	1	1.847859	864686.425049	864686.416260	866549.338135	866549.334961	00002	f	1970-01	49.315753	0
168	2	0.560657	869068.599121	869068.597168	869645.388184	869645.385010	2	2	1.113247	870653.003906	870652.997070	871781.465088	871781.461914	00002	f	1970-01	49.315753	0
169	2	0.039851	874285.224121	874285.221191	874341.320068	874341.318115	3	2	0.693662	875342.489990	875342.482178	876045.377930	876045.376221	00002	f	1970-01	49.315753	0
170	1	0.333365	878552.057129	878552.053955	878901.569092	878901.567871	3	1	0.687089	879903.275146	879903.267090	880605.407959	880605.406982	00002	f	1970-01	49.315753	0
171	2	0.518512	883118.789062	883118.787109	883653.426025	883653.425049	2	2	0.801083	884654.469971	884654.463135	885469.444092	885469.442139	00002	f	1970-01	49.315753	1
172	2	0.731884	887985.539062	887985.536133	888733.552979	888733.551025	3	2	0.781664	889736.601074	889736.593994	890533.447021	890533.445068	00002	f	1970-01	49.315753	0
173	2	0.649144	893052.245117	893052.243164	893717.512207	893717.510986	2	2	0.750525	894720.380127	894720.368164	895485.745117	895485.743164	00002	f	1970-01	49.315753	1
174	2	0.843110	898002.298096	898002.296143	898861.531982	898861.531006	2	2	0.512391	899870.062256	899870.054932	900397.617188	900397.614990	00002	f	1970-01	49.315753	1
175	2	0.543016	902903.101074	902903.099121	903461.521240	903461.519043	3	1	0.808286	904462.599121	904462.592285	905293.582031	905293.580078	00002	f	1970-01	49.315753	0
176	2	0.643055	907802.441162	907802.438965	908461.653076	908461.651123	3	2	0.463800	909462.724121	909462.716064	909933.727051	909933.725098	00002	f	1970-01	49.315753	1
177	2	0.504857	912452.494141	912452.491211	912973.587158	912973.585205	3	2	0.468090	913974.751953	913974.744141	914453.601074	914453.600098	00002	f	1970-01	49.315753	0
178	2	0.364264	916969.260986	916969.259033	917349.666260	917349.664062	3	2	0.900813	918350.733154	918350.725098	919269.649170	919269.647217	00002	f	1970-01	49.315753	1
179	2	0.539668	921785.963135	921785.961182	922341.761230	922341.760010	3	1	0.557528	923342.842041	923342.833984	923909.799072	923909.797119	00002	f	1970-01	49.315753	1
180	2	0.354286	926419.410889	926419.408203	926789.850098	926789.848145	3	2	0.331457	927790.925049	927790.916992	928133.754150	928133.752197	00002	f	1970-01	49.315753	0
181	2	0.464953	930652.802002	930652.800049	931133.902100	931133.899902	2	1	0.909633	932137.260010	932137.251221	933061.994141	933061.991943	00002	f	1970-01	49.315753	1
182	2	0.435472	935586.161133	935586.158936	936037.755127	936037.754150	2	1	0.569420	937038.806885	937038.800049	937621.875977	937621.874268	00002	f	1970-01	49.315753	1
183	2	0.269359	940136.265137	940136.263184	940421.858154	940421.855957	2	1	0.586058	941423.009033	941423.001221	942021.894043	942021.892090	00002	f	1970-01	49.315753	0
184	2	0.557541	944536.330078	944536.328125	945110.014893	945109.999023	3	2	0.566466	946110.973145	946110.966064	946685.879150	946685.877197	00002	f	1970-01	49.315753	1
185	2	0.362798	949203.069092	949203.066162	949581.968994	949581.968018	2	1	2.091284	950583.029053	950583.022217	952693.898926	952693.897949	00002	f	1970-01	49.315753	1
186	2	0.378726	955203.148193	955203.145020	955597.981934	955597.979980	3	2	0.602639	956599.051025	956599.043213	957222.011230	957222.009033	00002	f	1970-01	49.315753	1
187	2	0.333286	959736.540039	959736.537109	960085.958984	960085.957031	2	1	0.551227	961087.787109	961087.779053	961654.044189	961654.041992	00002	f	1970-01	49.315753	1
188	2	0.627905	964169.913086	964169.911133	964814.063232	964814.061035	3	2	0.561855	965815.111084	965815.103027	966398.026123	966398.024170	00002	f	1970-01	49.315753	1
189	2	0.966632	968903.218994	968903.217041	969886.157959	969886.156982	3	1	0.975249	970887.722900	970887.716064	971878.170898	971878.169189	00002	f	1970-01	49.315753	0
190	2	0.050502	974403.392090	974403.389893	974469.997070	974469.995117	2	1	0.687798	975471.788086	975471.776123	976174.145020	976174.143066	00002	f	1970-01	49.315753	1
191	2	0.359168	978686.799072	978686.797119	979062.083008	979062.081055	2	1	1.775726	980071.774902	980071.762207	981862.123047	981862.122070	00002	f	1970-01	49.315753	0
192	2	0.307146	984386.876221	984386.873047	984710.143066	984710.141113	2	2	0.653537	985711.631104	985711.620117	986374.186035	986374.184082	00002	f	1970-01	49.315753	1
193	2	0.463158	988886.940918	988886.938232	989366.217285	989366.215088	2	1	0.651644	990367.693115	990367.681152	991038.177002	991038.176025	00002	f	1970-01	49.315753	0
194	2	0.284382	993553.685059	993553.682129	993854.181152	993854.179199	3	2	0.816281	994855.824951	994855.812012	995686.245117	995686.243164	00002	f	1970-01	49.315753	1
195	2	0.458448	998203.700195	998203.697021	998678.285156	998678.281982	3	2	0.510882	999679.501221	999679.491943	1000198.236084	1000198.235107	00002	f	1970-01	49.315753	0
196	2	0.374341	1002703.762207	1002703.760254	1003094.284180	1003094.283203	3	1	0.806311	1004095.482178	1004095.473145	1004910.438232	1004910.437256	00002	f	1970-01	49.315753	1
197	2	0.593606	1007420.534180	1007420.531982	1008030.268066	1008030.265137	2	2	1.080847	1009031.342041	1009031.333984	1010134.295898	1010134.294189	00002	f	1970-01	49.315753	1
198	2	0.352212	1012653.944092	1012653.942139	1013022.289062	1013022.287109	3	1	0.433507	1014023.489990	1014023.481201	1014470.350098	1014470.348145	00002	f	1970-01	49.315753	1
199	2	0.379002	1016987.373047	1016987.357178	1017382.458984	1017382.458008	3	2	0.898786	1018383.667969	1018383.660156	1019302.365967	1019302.364258	00002	f	1970-01	49.315753	0
200	2	0.385618	1021820.724121	1021820.722168	1022222.470215	1022222.468262	2	2	0.657429	1023223.529053	1023223.521973	1023894.394043	1023894.392090	00002	f	1970-01	49.315753	0