
trial	choice1	rts1	stim1ons_sl	stim1ons_ms	choice1ons_sl	choice1ons_ms	state	choice2	rts2	stim2ons_sl	stim2ons_ms	choice2ons_sl	choice2ons_ms	SC_ID	gender	DOB	age	won

1	2	1.304512	141.927002	141.924072	1460.500000	1460.498291	3	2	0.395202	2464.139160	2464.129150	2867.891113	2867.888916	00006	m	1970-01	49.591553	0
2	1	0.453672	5389.821045	5389.819092	5859.715088	5859.714111	3	1	0.187024	6863.183105	6863.167969	7059.758057	7059.756104	00006	m	1970-01	49.591553	0
3	2	0.566322	9573.205078	9573.202148	10155.762939	10155.761963	2	2	0.487028	11158.673096	11158.663086	11659.826172	11659.824219	00006	m	1970-01	49.591553	0
4	2	0.686337	14173.219971	14173.218018	14875.850098	14875.848145	3	2	1.786355	15878.083984	15878.075195	17675.892090	17675.891113	00006	m	1970-01	49.591553	0
5	1	0.701752	20190.891113	20190.889160	20908.029053	20908.026123	3	1	0.464938	21918.121094	21918.113037	22387.912109	22387.910156	00006	m	1970-01	49.591553	1
6	1	0.768879	24906.588135	24906.584961	25691.883057	25691.881104	3	1	0.465616	26693.832031	26693.822021	27171.979004	27171.977051	00006	m	1970-01	49.591553	1
7	1	0.449543	29689.987061	29689.985107	30155.949219	30155.947998	2	1	0.670915	31158.805176	31158.796143	31844.005127	31844.002930	00006	m	1970-01	49.591553	1
8	1	0.526816	34356.765137	34356.763184	34899.966064	34899.963135	2	1	0.353479	35901.302246	35901.293213	36259.989014	36259.986084	00006	m	1970-01	49.591553	0
9	2	0.462146	38773.458008	38773.455078	39252.026123	39252.023926	3	2	0.443488	40253.579102	40253.571045	40700.042969	40700.041992	00006	m	1970-01	49.591553	0
10	1	0.932754	43206.850098	43206.847900	44156.026123	44156.024170	2	2	0.423861	45158.156006	45158.149170	45597.218018	45597.216309	00006	m	1970-01	49.591553	1
11	1	0.648742	48106.930176	48106.928223	48772.083008	48772.081299	2	2	0.454071	49775.650146	49775.640137	50244.114014	50244.112061	00006	m	1970-01	49.591553	1
12	1	0.582751	52757.000977	52756.999023	53356.171143	53356.169922	2	2	0.462681	54357.989258	54357.984131	54836.117188	54836.116211	00006	m	1970-01	49.591553	0
13	2	0.439316	57340.398193	57340.395996	57796.127197	57796.125000	3	1	0.389405	58797.344971	58797.337158	59196.263184	59196.260986	00006	m	1970-01	49.591553	1
14	2	0.520682	61707.098145	61707.096191	62244.246094	62244.244141	2	1	0.307294	63245.461182	63245.453125	63564.203125	63564.201172	00006	m	1970-01	49.591553	0
15	1	0.529936	66073.867188	66073.864990	66620.249023	66620.234131	2	1	0.460616	67621.373047	67621.366211	68084.242188	68084.240967	00006	m	1970-01	49.591553	1
16	1	0.701210	70590.594971	70590.592041	71308.223145	71308.222168	3	1	0.488589	72309.461182	72309.453125	72812.291016	72812.290039	00006	m	1970-01	49.591553	1
17	1	0.687959	75324.065918	75324.064209	76028.398193	76028.397217	2	1	0.283854	77029.496094	77029.488281	77324.289062	77324.287109	00006	m	1970-01	49.591553	1
18	1	0.523121	79840.739990	79840.737305	80380.276123	80380.275146	2	1	0.437829	81381.500977	81381.492188	81828.334229	81828.332031	00006	m	1970-01	49.591553	0
19	2	1.135085	84340.811035	84340.809082	85492.306152	85492.304199	3	2	0.281147	86493.593994	86493.586182	86788.391113	86788.389893	00006	m	1970-01	49.591553	0
20	2	0.392425	89307.534912	89307.533203	89716.384033	89716.383057	3	1	1.864403	90717.728271	90717.718262	92588.384033	92588.382080	00006	m	1970-01	49.591553	1
21	2	0.368992	95090.960205	95090.958252	95476.371094	95476.370117	3	1	0.393683	96476.871094	96476.867920	96884.416260	96884.414062	00006	m	1970-01	49.591553	1
22	2	0.404981	99391.025146	99391.021973	99812.414062	99812.413086	3	1	0.276326	100813.632080	100813.624023	101100.451172	101100.450195	00006	m	1970-01	49.591553	1
23	2	0.364275	103607.755127	103607.753174	103988.449219	103988.447021	2	1	0.381002	104989.589111	104989.581299	105388.529053	105388.528076	00006	m	1970-01	49.591553	1
24	2	0.360266	107907.812256	107907.810059	108284.501221	108284.499023	2	1	0.305667	109285.593994	109285.587158	109596.586182	109596.584229	00006	m	1970-01	49.591553	1
25	2	0.392200	112107.870117	112107.867920	112516.500977	112516.499023	3	1	0.416255	113517.807129	113517.799316	113940.573975	113940.572998	00006	m	1970-01	49.591553	1
26	2	0.330239	116458.094238	116458.091064	116804.602051	116804.601074	2	1	0.348217	117805.757080	117805.749023	118172.600098	118172.598145	00006	m	1970-01	49.591553	1
27	2	0.632809	120691.343994	120691.342285	121340.569092	121340.568115	3	1	0.366874	122342.520996	122342.513184	122724.654053	122724.653076	00006	m	1970-01	49.591553	1
28	2	0.490819	125241.389160	125241.387207	125748.637939	125748.635986	2	1	0.446844	126749.866943	126749.859131	127204.689209	127204.688232	00006	m	1970-01	49.591553	1
29	2	0.496116	129708.143066	129708.141113	130220.667236	130220.666016	3	1	0.324146	131221.763184	131221.756104	131548.729004	131548.727051	00006	m	1970-01	49.591553	1
30	2	0.530067	134058.213135	134058.210205	134604.691162	134604.690186	3	1	0.508768	135605.698242	135605.690918	136116.744141	136116.742188	00006	m	1970-01	49.591553	1
31	2	0.427436	138624.947266	138624.945068	139068.813232	139068.811035	2	1	0.362066	140069.933105	140069.925049	140436.778076	140436.775879	00006	m	1970-01	49.591553	0
32	1	0.686673	142941.663086	142941.659912	143644.761230	143644.759033	2	2	0.314742	144645.277100	144645.273926	144972.861084	144972.858887	00006	m	1970-01	49.591553	0
33	2	1.848704	147491.860107	147491.858154	149356.859131	149356.858154	2	1	0.381987	150359.641113	150359.633057	150756.844971	150756.843262	00006	m	1970-01	49.591553	1
34	2	0.537342	153275.147949	153275.145996	153828.920166	153828.917969	2	1	0.499300	154830.134033	154830.126221	155340.895020	155340.894043	00006	m	1970-01	49.591553	1
35	2	0.545823	157858.556152	157858.552979	158420.809082	158420.808105	3	1	0.267929	159421.200195	159421.197021	159692.929199	159692.928223	00006	m	1970-01	49.591553	1
36	2	0.435968	162208.619141	162208.616943	162661.008301	162661.007080	2	1	0.313898	163662.090088	163662.082031	163988.964111	163988.963135	00006	m	1970-01	49.591553	0
37	1	0.472472	166492.011230	166492.009033	166980.929199	166980.927979	2	2	0.293204	167982.222168	167982.215088	168284.991943	168284.991211	00006	m	1970-01	49.591553	0
38	1	0.804479	170792.080078	170792.078125	171612.978027	171612.977051	2	1	0.315856	172614.187988	172614.180176	172941.060059	172941.058105	00006	m	1970-01	49.591553	1
39	1	0.721804	175458.808105	175458.806152	176197.102051	176197.100098	2	1	1.020430	177198.388184	177198.380127	178229.041260	178229.038086	00006	m	1970-01	49.591553	1
40	1	0.374405	180742.228027	180742.226318	181133.063232	181133.062256	2	1	0.311044	182133.537109	182133.534912	182453.066162	182453.062988	00006	m	1970-01	49.591553	0
41	1	0.821686	184958.956055	184958.954102	185797.082031	185797.080078	3	2	0.332333	186798.331055	186798.322998	187141.093994	187141.093018	00006	m	1970-01	49.591553	0
42	2	0.681634	189659.031006	189659.029053	190357.089111	190357.088135	3	2	0.365691	191360.398193	191360.390137	191741.178955	191741.177246	00006	m	1970-01	49.591553	1
43	2	0.417578	194259.060059	194259.058105	194693.094971	194693.093994	2	2	0.480458	195694.189209	195694.181152	196189.349121	196189.347168	00006	m	1970-01	49.591553	1
44	2	0.568348	198692.462891	198692.461182	199277.268066	199277.266113	2	2	0.329029	200278.376221	200278.368164	200621.334229	200621.332031	00006	m	1970-01	49.591553	1
45	2	0.622941	203125.893311	203125.891113	203765.260010	203765.258057	3	2	0.317619	204765.770020	204765.767090	205093.287109	205093.285156	00006	m	1970-01	49.591553	0
46	2	0.595589	207609.302979	207609.301270	208221.299072	208221.298096	3	1	0.275574	209222.389160	209222.382080	209501.343994	209501.343018	00006	m	1970-01	49.591553	1
47	2	0.387704	212009.356201	212009.354248	212413.518066	212413.516113	3	1	0.395545	213414.694092	213414.687012	213821.355225	213821.353027	00006	m	1970-01	49.591553	0
48	1	1.358795	216326.097168	216326.095215	217701.312256	217701.310059	2	2	0.392187	218702.322998	218702.316162	219101.404053	219101.403076	00006	m	1970-01	49.591553	1
49	1	0.595503	221609.504150	221609.501221	222221.431152	222221.430176	2	2	0.267435	223222.415039	223222.408203	223493.387939	223493.386963	00006	m	1970-01	49.591553	1
50	1	0.331413	226009.578125	226009.575195	226357.405029	226357.403076	2	2	0.261442	227358.531982	227358.524170	227637.452148	227637.450928	00006	m	1970-01	49.591553	1
51	1	0.333994	230143.152100	230143.150146	230493.389160	230493.386963	3	2	0.320083	231494.601074	231494.593018	231829.489990	231829.489014	00006	m	1970-01	49.591553	0
52	2	0.453952	234343.034180	234343.032227	234813.404053	234813.403320	3	1	0.331347	235814.614990	235814.605957	236157.490967	236157.489990	00006	m	1970-01	49.591553	1
53	2	0.536649	238676.425049	238676.423096	239229.491943	239229.490967	3	1	0.346653	240229.988281	240229.986084	240589.527100	240589.526123	00006	m	1970-01	49.591553	0
54	1	0.575874	243093.167236	243093.164062	243685.458008	243685.457031	2	2	0.456596	244686.551270	244686.542969	245149.540039	245149.538086	00006	m	1970-01	49.591553	0
55	2	0.729322	247659.885010	247659.883057	248405.638916	248405.637939	3	1	0.299923	249406.702148	249406.695312	249709.593994	249709.593018	00006	m	1970-01	49.591553	1
56	2	0.498530	252226.639160	252226.635986	252741.596924	252741.595215	3	1	0.253891	253744.444092	253744.435059	254013.639160	254013.637207	00006	m	1970-01	49.591553	1
57	2	0.358441	256526.689209	256526.686035	256901.572021	256901.569092	2	1	0.303839	257902.667236	257902.658936	258213.649170	258213.648193	00006	m	1970-01	49.591553	1
58	2	0.294416	260726.886963	260726.884277	261037.610107	261037.606934	3	1	0.458441	262038.687988	262038.680176	262501.644287	262501.641113	00006	m	1970-01	49.591553	1
59	2	0.619083	265010.155029	265010.153076	265645.672119	265645.671143	3	1	0.321748	266646.870117	266646.861084	266981.677246	266981.675049	00006	m	1970-01	49.591553	1
60	2	0.367729	269493.552979	269493.551025	269877.696045	269877.694092	3	1	0.328406	270878.881104	270878.872070	271221.763184	271221.761963	00006	m	1970-01	49.591553	1
61	2	0.334342	273726.947998	273726.946289	274077.747070	274077.746094	3	1	0.424376	275078.931152	275078.923096	275517.766113	275517.765137	00006	m	1970-01	49.591553	1
62	2	0.346262	278027.137207	278027.135254	278389.705078	278389.703125	3	1	1.524365	279390.780029	279390.773193	280917.830078	280917.827148	00006	m	1970-01	49.591553	0
63	1	0.514261	283427.093994	283427.092041	283957.791260	283957.788086	2	2	0.404965	284958.859131	284958.852051	285381.850098	285381.848145	00006	m	1970-01	49.591553	1
64	1	0.367633	287893.821045	287893.819092	288277.892090	288277.890137	2	2	0.424277	289278.955078	289278.947266	289717.895020	289717.893311	00006	m	1970-01	49.591553	1
65	1	0.658242	292227.219238	292227.217041	292901.895996	292901.894287	2	2	0.663601	293902.367188	293902.364014	294573.939209	294573.937012	00006	m	1970-01	49.591553	1
66	1	0.336184	297077.299316	297077.297119	297429.916016	297429.914062	3	2	0.330258	298431.085205	298431.077148	298774.001221	298773.999023	00006	m	1970-01	49.591553	1
67	1	1.265352	321046.118164	321046.107178	322326.124023	322326.123047	2	1	0.501986	323328.007080	323328.004150	323846.089111	323846.087891	00006	m	1970-01	49.591553	0
68	1	0.436685	326361.030273	326361.028076	326814.172119	326814.170166	2	2	0.458606	327815.290039	327815.282227	328286.107178	328286.106201	00006	m	1970-01	49.591553	1
69	1	0.419543	330794.468018	330794.465088	331230.441162	331230.438965	3	2	0.266002	332231.653076	332231.645264	332510.250244	332510.249268	00006	m	1970-01	49.591553	0
70	2	0.601900	335027.862061	335027.860107	335646.182129	335646.181152	3	1	0.449244	336647.326904	336647.320068	337110.218018	337110.216309	00006	m	1970-01	49.591553	0
71	1	0.913860	339628.045166	339628.042969	340558.224121	340558.222168	2	2	0.444547	341559.230225	341559.222900	342022.293213	342022.274170	00006	m	1970-01	49.591553	1
72	1	0.341843	344528.006104	344528.003906	344886.301025	344886.299316	3	2	0.471848	345887.386230	345887.378906	346366.337158	346366.333984	00006	m	1970-01	49.591553	1
73	1	0.567876	348878.169189	348878.166016	349462.363037	349462.362061	3	2	0.464522	350463.448242	350463.439941	350942.363037	350942.361084	00006	m	1970-01	49.591553	0
74	1	1.817137	353444.885010	353444.883301	355278.363037	355278.361084	2	1	0.415836	356279.554199	356279.546143	356710.469971	356710.468018	00006	m	1970-01	49.591553	1
75	1	0.641751	359228.230957	359228.228271	359886.424072	359886.409180	2	1	0.519701	360886.757324	360886.755127	361414.359131	361414.358154	00006	m	1970-01	49.591553	1
76	1	0.581704	363928.306152	363928.303955	364526.413086	364526.412109	2	1	0.509637	365529.464111	365529.456299	366054.373047	366054.371094	00006	m	1970-01	49.591553	1
77	1	0.508385	368561.657959	368561.656006	369086.513184	369086.512207	2	1	0.463671	370087.594971	370087.588135	370558.476074	370558.475098	00006	m	1970-01	49.591553	0
78	1	0.392291	373061.774170	373061.770996	373470.488037	373470.486084	2	2	0.352323	374471.682129	374471.674072	374830.546143	374830.544922	00006	m	1970-01	49.591553	1
79	1	0.588956	377345.168213	377345.166016	377950.529297	377950.527100	3	2	0.588920	378951.915039	378951.906982	379550.516113	379550.515137	00006	m	1970-01	49.591553	1
80	1	0.368206	382061.893066	382061.890137	382446.521973	382446.521240	3	2	0.312915	383447.711182	383447.701904	383774.619141	383774.617920	00006	m	1970-01	49.591553	1
81	1	0.671444	386278.622070	386278.619141	386966.490967	386966.489990	3	2	0.292250	387967.568115	387967.561035	388270.678955	388270.677246	00006	m	1970-01	49.591553	1
82	1	0.347514	390778.687988	390778.686035	391142.628906	391142.627197	2	2	0.644820	392143.687012	392143.679199	392806.624023	392806.623047	00006	m	1970-01	49.591553	1
83	1	0.382183	395312.088135	395312.084961	395710.689209	395710.688232	2	2	0.486089	396713.407959	396713.400146	397214.634033	397214.632080	00006	m	1970-01	49.591553	1
84	1	0.333412	399728.846191	399728.843994	400078.692871	400078.691162	2	2	0.391431	401080.230957	401080.223145	401486.702148	401486.700195	00006	m	1970-01	49.591553	0
85	2	0.514682	403995.611084	403995.608154	404526.670898	404526.668213	3	1	0.277417	405527.632080	405527.626953	405822.766113	405822.765137	00006	m	1970-01	49.591553	0
86	1	0.021355	408328.945068	408328.943115	408366.735107	408366.734131	2	1	0.444017	409367.912109	409367.904053	409822.749268	409822.746094	00006	m	1970-01	49.591553	0
87	1	0.429333	412329.089111	412329.087158	412774.778320	412774.775146	2	2	1.003990	413775.978271	413775.969971	414782.784180	414782.781250	00006	m	1970-01	49.591553	1
88	1	0.390593	417295.864258	417295.862061	417702.781006	417702.779053	2	2	0.358650	418703.967285	418703.958984	419070.861084	419070.859131	00006	m	1970-01	49.591553	0
89	2	0.675235	421579.152100	421579.150146	422270.819092	422270.818115	2	1	0.311953	423271.902100	423271.895020	423590.884033	423590.882080	00006	m	1970-01	49.591553	1
90	2	0.438509	426095.897949	426095.895020	426550.811035	426550.810059	3	1	0.340526	427551.715332	427551.708984	427902.858154	427902.857178	00006	m	1970-01	49.591553	1
91	2	0.425907	430412.612061	430412.610107	430854.935059	430854.934082	3	1	0.384575	431856.038086	431856.031006	432246.985107	432246.983154	00006	m	1970-01	49.591553	1
92	2	0.363812	434762.684082	434762.682129	435142.912109	435142.911133	3	1	0.308511	436143.979248	436143.970947	436470.991211	436470.989014	00006	m	1970-01	49.591553	0
93	2	1.555164	438979.429199	438979.427246	440550.989014	440550.987061	3	2	0.460443	441552.051025	441552.042969	442022.982178	442022.980957	00006	m	1970-01	49.591553	0
94	1	0.349098	444529.492188	444529.489990	444895.038086	444895.035156	2	1	0.374433	445897.470947	445897.463135	446287.040039	446287.037109	00006	m	1970-01	49.591553	1
95	1	0.346395	448796.211182	448796.209229	449159.059082	449159.057129	2	1	0.340454	450160.128174	450160.120117	450503.127197	450503.125000	00006	m	1970-01	49.591553	1
96	1	0.393615	453012.927979	453012.926270	453422.988037	453422.987061	3	1	0.289713	454424.050293	454424.041992	454719.104980	454719.103271	00006	m	1970-01	49.591553	0
97	2	0.496969	457229.677979	457229.676025	457743.072021	457743.071045	3	2	0.540955	458743.564209	458743.562012	459287.073242	459287.072021	00006	m	1970-01	49.591553	0
98	2	0.426323	461796.378174	461796.375977	462239.152100	462239.151123	3	1	0.440957	463240.228027	463240.220215	463687.147217	463687.145996	00006	m	1970-01	49.591553	0
99	1	2.322250	466196.481934	466196.479248	468535.144287	468535.143311	3	1	0.901044	469536.225098	469536.217041	470447.338135	470447.335938	00006	m	1970-01	49.591553	1
100	1	0.371558	472963.207031	472963.205078	473351.253174	473351.251221	2	1	0.308244	474352.453125	474352.445312	474671.261230	474671.259033	00006	m	1970-01	49.591553	0
101	1	0.370820	477179.978271	477179.976074	477567.219971	477567.218262	2	2	0.379569	478568.385254	478568.377197	478959.319092	478959.318115	00006	m	1970-01	49.591553	0
102	2	1.143471	481463.829102	481463.827148	482623.300049	482623.297119	3	2	0.449476	483623.649170	483623.646973	484079.306152	484079.303955	00006	m	1970-01	49.591553	0
103	2	0.506080	486596.778076	486596.776123	487119.288086	487119.287109	2	1	0.365425	488120.698975	488120.685059	488495.321045	488495.320068	00006	m	1970-01	49.591553	0
104	1	1.297325	491013.634033	491013.632080	492327.265137	492327.264160	2	1	0.460745	493328.149170	493328.143311	493807.381104	493807.380127	00006	m	1970-01	49.591553	0
105	1	1.485349	496313.714111	496313.712158	497815.362061	497815.360107	2	2	0.377400	498816.528076	498816.519043	499207.462158	499207.461182	00006	m	1970-01	49.591553	0
106	2	0.597320	501713.697021	501713.695068	502327.428223	502327.426025	2	2	0.436637	503328.366211	503328.360107	503783.442139	503783.440186	00006	m	1970-01	49.591553	0
107	2	1.165944	506297.216064	506297.213135	507479.452148	507479.449951	3	1	0.414587	508481.726074	508481.718262	508911.451172	508911.449951	00006	m	1970-01	49.591553	1
108	2	0.537238	511413.833252	511413.830078	511967.481201	511967.479980	3	1	0.371270	512968.539062	512968.531250	513351.558105	513351.556152	00006	m	1970-01	49.591553	0
109	2	0.687301	515863.930176	515863.928223	516567.645264	516567.642090	3	2	0.387205	517568.425049	517568.418945	517967.537109	517967.536133	00006	m	1970-01	49.591553	1
110	2	0.526524	520480.616211	520480.614014	521023.595215	521023.592041	2	2	0.489222	522025.098145	522025.084961	522519.632080	522519.630127	00006	m	1970-01	49.591553	0
111	2	0.824465	525030.683105	525030.681152	525871.580322	525871.578125	3	1	0.167138	526872.668945	526872.662109	527047.609131	527047.608154	00006	m	1970-01	49.591553	1
112	2	0.491082	529564.106934	529564.105225	530071.612305	530071.611084	3	1	0.335057	531072.605225	531072.598145	531415.583252	531415.582031	00006	m	1970-01	49.591553	1
113	2	0.324337	533930.890137	533930.886963	534271.582275	534271.581055	3	1	0.223030	535272.674072	535272.666016	535503.624023	535503.623047	00006	m	1970-01	49.591553	0
114	1	0.424967	538014.225098	538014.223145	538455.598145	538455.595947	2	1	0.471726	539456.684082	539456.677002	539935.740967	539935.739014	00006	m	1970-01	49.591553	0
115	1	0.607672	542447.622070	542447.619873	543071.726074	543071.725098	2	2	0.398960	544072.830078	544072.822266	544479.695068	544479.693115	00006	m	1970-01	49.591553	0
116	2	0.513599	546997.812988	546997.811035	547527.703125	547527.702148	3	2	0.396290	548528.789062	548528.782227	548943.749023	548943.747070	00006	m	1970-01	49.591553	0
117	2	0.567604	551447.876953	551447.874268	552031.777100	552031.775146	3	1	0.320276	553032.954102	553032.946289	553367.803223	553367.802002	00006	m	1970-01	49.591553	0
118	1	0.070208	555881.165039	555881.162109	555967.781982	555967.781250	3	2	0.802923	556968.981201	556968.972900	557783.840088	557783.839111	00006	m	1970-01	49.591553	1
119	1	0.381497	560297.883057	560297.881104	560695.802002	560695.800049	3	2	0.253551	561696.881104	561696.874268	561967.894043	561967.893311	00006	m	1970-01	49.591553	0
120	1	0.990196	564481.277100	564481.275146	565487.922119	565487.906982	2	1	0.566195	566488.971191	566488.963135	567063.923096	567063.922119	00006	m	1970-01	49.591553	1
121	1	0.426104	569581.347168	569581.345215	570023.892090	570023.890137	2	1	0.025374	571024.979248	571024.971924	571056.537109	571056.533203	00006	m	1970-01	49.591553	1
122	1	0.650787	573564.876221	573564.874023	574231.945068	574231.944092	2	1	0.640090	575233.561035	575233.546143	575887.945068	575887.944092	00006	m	1970-01	49.591553	1
123	1	0.489402	578398.140137	578398.138184	578903.975098	578903.974121	2	1	0.285373	579905.195068	579905.186035	580199.973145	580199.970947	00006	m	1970-01	49.591553	0
124	2	0.500690	582714.878174	582714.875000	583231.990234	583231.988037	3	2	0.384092	584233.148193	584233.138184	584632.107178	584632.105225	00006	m	1970-01	49.591553	0
125	2	0.467378	587148.276123	587148.273926	587632.074219	587632.072998	3	1	0.280035	588633.041016	588633.034180	588928.086182	588928.084229	00006	m	1970-01	49.591553	1
126	2	0.407944	591431.674072	591431.670898	591856.036133	591856.035156	3	1	0.327296	592857.197998	592857.188965	593192.078125	593192.075928	00006	m	1970-01	49.591553	1
127	2	0.333234	595698.402100	595698.400146	596048.063965	596048.062256	3	1	0.271306	597049.731201	597049.722900	597336.178223	597336.177246	00006	m	1970-01	49.591553	0
128	1	1.159296	599848.583984	599848.582031	601024.197266	601024.195068	2	1	0.480573	602025.275146	602025.267090	602512.167969	602512.166992	00006	m	1970-01	49.591553	1
129	1	0.352532	605015.202148	605015.198975	605384.197998	605384.196045	2	1	0.345906	606385.401123	606385.392090	606744.230957	606744.230225	00006	m	1970-01	49.591553	0
130	1	0.887159	609248.574951	609248.573242	610152.183105	610152.182129	2	2	0.043340	611153.279053	611153.270996	611208.414062	611208.411133	00006	m	1970-01	49.591553	1
131	1	0.388495	613715.331055	613715.329102	614120.278320	614120.276123	3	2	0.332483	615121.367920	615121.360107	615464.271240	615464.270264	00006	m	1970-01	49.591553	1
132	1	0.625797	617982.036133	617982.033936	618624.292236	618624.290039	2	2	0.304466	619625.283203	619625.276123	619936.345215	619936.343018	00006	m	1970-01	49.591553	1
133	1	0.487048	622448.799316	622448.797119	622952.282959	622952.281006	2	2	0.347081	623953.491943	623953.483154	624312.331055	624312.330078	00006	m	1970-01	49.591553	0
134	1	1.256077	1205925.192139	1205925.179932	1207196.539062	1207196.537109	2	1	0.381420	1208197.744141	1208197.736084	1208588.573975	1208588.572998	00006	m	1970-01	49.591553	1
135	1	0.352763	1211107.505127	1211107.501953	1211476.625000	1211476.624023	3	1	0.146050	1212477.829102	1212477.821289	1212636.595947	1212636.594971	00006	m	1970-01	49.591553	1
136	1	0.815319	1215140.965088	1215140.963135	1215972.573975	1215972.572266	2	1	0.509961	1216975.522217	1216975.512939	1217500.581055	1217500.579102	00006	m	1970-01	49.591553	0
137	1	0.460585	1220007.580078	1220007.578125	1220484.582031	1220484.580078	2	2	0.265983	1221485.717041	1221485.709961	1221756.661133	1221756.659180	00006	m	1970-01	49.591553	1
138	1	0.697879	1224274.287109	1224274.285156	1224988.602051	1224988.600098	2	2	0.461251	1225989.750000	1225989.742188	1226468.667969	1226468.666260	00006	m	1970-01	49.591553	1
139	1	0.509860	1228974.354004	1228974.352295	1229500.649902	1229500.648193	2	2	0.401194	1230501.852051	1230501.843018	1230908.667236	1230908.666260	00006	m	1970-01	49.591553	1
140	1	0.635846	1233424.424072	1233424.421143	1234076.695068	1234076.694092	3	2	0.889881	1235077.768066	1235077.760986	1235980.767090	1235980.765137	00006	m	1970-01	49.591553	1
141	1	0.489155	1238491.176270	1238491.173096	1238996.752197	1238996.751221	2	2	0.309170	1239997.943115	1239997.935059	1240316.783936	1240316.781982	00006	m	1970-01	49.591553	1
142	1	0.411818	1242824.561279	1242824.559082	1243252.813232	1243252.811035	3	2	0.283137	1244253.884277	1244253.876953	1244540.813965	1244540.812988	00006	m	1970-01	49.591553	0
143	1	0.578405	1247057.964111	1247057.961914	1247652.794189	1247652.791992	2	1	0.435087	1248653.935059	1248653.928223	1249092.827148	1249092.826172	00006	m	1970-01	49.591553	1
144	1	0.500355	1251608.022949	1251608.020996	1252124.811035	1252124.809082	3	1	0.311734	1253125.885986	1253125.878174	1253452.873047	1253452.871094	00006	m	1970-01	49.591553	0
145	2	0.526317	1255958.083008	1255958.081055	1256500.833008	1256500.832275	3	2	0.345064	1257501.931885	1257501.925049	1257852.932129	1257852.930176	00006	m	1970-01	49.591553	0
146	2	0.382289	1260358.151123	1260358.149170	1260756.874268	1260756.872070	3	1	0.318296	1261759.450928	1261759.442139	1262092.903320	1262092.901123	00006	m	1970-01	49.591553	1
147	2	0.412335	1264608.210205	1264608.208008	1265036.997070	1265036.995117	3	1	0.419603	1266038.073242	1266038.064941	1266460.927002	1266460.926025	00006	m	1970-01	49.591553	1
148	2	0.405566	1268974.947021	1268974.945068	1269396.975098	1269396.973145	2	1	0.244950	1270398.041992	1270398.035156	1270653.038086	1270653.037109	00006	m	1970-01	49.591553	0
149	2	0.382263	1273158.337158	1273158.334961	1273557.082031	1273557.080078	3	2	0.486201	1274559.277100	1274559.271240	1275060.987061	1275060.985107	00006	m	1970-01	49.591553	1
150	2	0.453564	1277575.062012	1277575.060303	1278045.062988	1278045.061279	3	2	0.346862	1279046.161133	1279046.154053	1279405.045166	1279405.044189	00006	m	1970-01	49.591553	1
151	2	0.464175	1281908.465088	1281908.463135	1282389.066895	1282389.066162	3	2	0.244818	1283390.121094	1283390.114258	1283653.074219	1283653.072266	00006	m	1970-01	49.591553	0
152	2	0.326139	1286158.525146	1286158.523193	1286501.099121	1286501.097900	3	1	0.344812	1287502.300049	1287502.291016	1287853.140137	1287853.138916	00006	m	1970-01	49.591553	1
153	1	0.662069	1290358.596191	1290358.593994	1291037.102051	1291037.099121	2	1	0.339439	1292038.173096	1292038.165283	1292381.161133	1292381.159180	00006	m	1970-01	49.591553	1
154	1	0.464711	1294892.003174	1294892.000977	1295373.141113	1295373.138916	2	1	0.341459	1296374.228027	1296374.221191	1296733.231201	1296733.230225	00006	m	1970-01	49.591553	0
155	2	0.282733	1299242.053223	1299242.051270	1299541.218018	1299541.216309	2	2	0.334751	1300543.364990	1300543.357178	1300893.256104	1300893.255127	00006	m	1970-01	49.591553	0
156	2	0.356018	1303408.799072	1303408.797119	1303781.230957	1303781.229980	3	1	0.229500	1304782.405273	1304782.397217	1305021.414062	1305021.412109	00006	m	1970-01	49.591553	1
157	2	0.351320	1307525.506104	1307525.502930	1307893.252197	1307893.250977	3	1	0.352648	1308894.416260	1308894.407227	1309261.267090	1309261.266113	00006	m	1970-01	49.591553	1
158	2	0.357198	1311775.576172	1311775.572998	1312149.199951	1312149.198975	3	1	0.278635	1313150.248047	1313150.239990	1313437.325928	1313437.324219	00006	m	1970-01	49.591553	0
159	1	0.422638	1315942.295166	1315942.292969	1316381.370117	1316381.369141	2	2	0.781248	1317382.592041	1317382.583252	1318173.344238	1318173.342041	00006	m	1970-01	49.591553	1
160	1	0.328520	1320692.420166	1320692.418213	1321037.333008	1321037.330078	2	2	0.331239	1322038.398193	1322038.391113	1322373.392090	1322373.391113	00006	m	1970-01	49.591553	0
161	1	0.856485	1324892.475098	1324892.472168	1325765.360107	1325765.358887	2	1	0.317860	1326765.907227	1326765.904053	1327093.422119	1327093.419189	00006	m	1970-01	49.591553	0
162	2	0.395780	1329609.169189	1329609.167236	1330021.390137	1330021.388184	3	1	0.395780	1331022.465088	1331022.458252	1331421.390137	1331421.389160	00006	m	1970-01	49.591553	1
163	2	0.495120	1333925.885986	1333925.885010	1334437.449951	1334437.448975	3	1	0.275100	1335438.528076	1335438.520020	1335717.444092	1335717.443115	00006	m	1970-01	49.591553	0
164	1	0.811109	1338225.954102	1338225.951904	1339053.496094	1339053.495117	2	1	0.394378	1340054.590088	1340054.582275	1340453.468262	1340453.467285	00006	m	1970-01	49.591553	1
165	1	0.549723	1342959.362061	1342959.360107	1343525.515137	1343525.514160	2	1	0.423090	1344527.256104	1344527.248047	1344965.570068	1344965.569092	00006	m	1970-01	49.591553	1
166	1	0.385108	1347476.092285	1347476.090088	1347877.645020	1347877.643066	3	1	0.369075	1348878.750244	1348878.741943	1349261.633057	1349261.631104	00006	m	1970-01	49.591553	0
167	1	0.820986	1351776.159180	1351776.156006	1352613.572266	1352613.570068	2	2	0.355688	1353614.633057	1353614.625000	1353981.653076	1353981.651123	00006	m	1970-01	49.591553	0
168	2	1.160346	1356493.014160	1356493.011963	1357669.688965	1357669.687988	2	1	0.385604	1358670.700195	1358670.693115	1359061.635010	1359061.633301	00006	m	1970-01	49.591553	1
169	2	0.380948	1361576.292969	1361576.291260	1361973.683105	1361973.681885	3	1	0.300827	1362974.697266	1362974.690918	1363293.587891	1363293.587158	00006	m	1970-01	49.591553	1
170	2	0.323549	1365809.869141	1365809.865967	1366149.674072	1366149.673096	3	1	0.366241	1367150.874268	1367150.866211	1367525.725098	1367525.723145	00006	m	1970-01	49.591553	0
171	1	0.442150	1370043.071045	1370043.068115	1370501.714111	1370501.712158	2	2	0.424247	1371502.733154	1371502.726074	1371933.787109	1371933.785156	00006	m	1970-01	49.591553	1
172	1	0.290186	1374443.124023	1374443.122070	1374749.778076	1374749.776123	3	2	0.286194	1375750.118164	1375750.116211	1376045.800049	1376045.798096	00006	m	1970-01	49.591553	0
173	2	0.869487	1378560.010986	1378560.008057	1379445.804199	1379445.802979	3	1	0.890140	1380446.975098	1380446.966064	1381349.813965	1381349.812012	00006	m	1970-01	49.591553	0
174	2	0.681427	1383859.964111	1383859.962158	1384557.826172	1384557.825195	2	2	0.237398	1385558.854248	1385558.846191	1385813.853027	1385813.851074	00006	m	1970-01	49.591553	1
175	2	0.654731	1388326.695068	1388326.693115	1388997.860107	1388997.859131	3	2	0.316030	1389999.027100	1389999.019043	1390325.851074	1390325.849121	00006	m	1970-01	49.591553	1
176	2	0.666026	1392843.437988	1392843.435059	1393525.890137	1393525.887939	3	2	0.358654	1394528.083252	1394528.074951	1394901.888184	1394901.885986	00006	m	1970-01	49.591553	1
177	2	0.411297	1397410.159180	1397410.156982	1397837.892090	1397837.889893	3	2	0.282688	1398839.215088	1398839.207031	1399125.981201	1399125.979004	00006	m	1970-01	49.591553	1
178	2	0.289901	1401643.575928	1401643.573975	1401949.901123	1401949.898926	2	2	0.509919	1402951.088867	1402951.081055	1403469.938232	1403469.936279	00006	m	1970-01	49.591553	1
179	2	0.372591	1405976.968018	1405976.966064	1406365.984131	1406365.982178	2	2	0.261212	1407367.170166	1407367.161133	1407637.957275	1407637.955078	00006	m	1970-01	49.591553	1
180	2	0.517841	1410143.697021	1410143.695312	1410677.975098	1410677.973145	3	2	0.624596	1411679.155273	1411679.146973	1412318.079102	1412318.077148	00006	m	1970-01	49.591553	0
181	1	0.706526	1414827.075928	1414827.074219	1415550.065186	1415550.064209	2	2	0.277783	1416551.028076	1416551.021240	1416837.994141	1416837.992920	00006	m	1970-01	49.591553	1
182	1	0.373757	1419343.820068	1419343.818115	1419734.036133	1419734.020996	3	2	0.030680	1420735.211182	1420735.202148	1420774.328125	1420774.323975	00006	m	1970-01	49.591553	0
183	2	0.520475	1423277.849121	1423277.847168	1423814.133057	1423814.116943	2	1	0.515090	1424815.002930	1424814.997070	1425342.110107	1425342.108154	00006	m	1970-01	49.591553	1
184	2	0.329047	1427860.609131	1427860.606934	1428206.102295	1428206.100098	3	1	0.307060	1429207.159180	1429207.151123	1429534.126953	1429534.125244	00006	m	1970-01	49.591553	0
185	2	0.505685	1432044.011230	1432044.009033	1432566.134033	1432566.131104	2	1	0.413079	1433567.099121	1433567.090088	1433990.206055	1433990.205078	00006	m	1970-01	49.591553	1
186	2	0.359762	1436494.062012	1436494.060059	1436870.270996	1436870.269043	3	1	0.321012	1437871.479004	1437871.470947	1438198.204102	1438198.203125	00006	m	1970-01	49.591553	1
187	2	0.455028	1440710.919189	1440710.916992	1441182.260986	1441182.259277	3	1	0.364362	1442183.335205	1442183.327148	1442558.304199	1442558.302002	00006	m	1970-01	49.591553	0
188	2	0.976293	1445077.525146	1445077.522949	1446070.258301	1446070.257080	3	2	0.360965	1447071.322021	1447071.314209	1447438.281982	1447438.281250	00006	m	1970-01	49.591553	0
189	1	0.237631	1449944.281250	1449944.279053	1450198.354004	1450198.352295	3	2	0.603608	1451198.871094	1451198.869141	1451814.330078	1451814.328125	00006	m	1970-01	49.591553	1
190	1	0.398179	1454327.683105	1454327.681152	1454742.277100	1454742.276123	2	2	0.317598	1455743.217041	1455743.211182	1456078.383057	1456078.382080	00006	m	1970-01	49.591553	0
191	1	0.555530	1458594.418213	1458594.416260	1459166.384033	1459166.381104	3	2	0.396844	1460166.746338	1460166.743164	1460574.366211	1460574.364014	00006	m	1970-01	49.591553	1
192	1	0.472101	1463077.795166	1463077.793213	1463566.343994	1463566.342285	2	2	0.324836	1464567.395020	1464567.387207	1464902.413086	1464902.411133	00006	m	1970-01	49.591553	1
193	1	0.602788	1467411.192139	1467411.189209	1468030.415039	1468030.413086	2	2	0.258173	1469031.611084	1469031.602051	1469302.485107	1469302.484131	00006	m	1970-01	49.591553	1
194	1	0.434727	1471811.253174	1471811.250977	1472262.418945	1472262.417236	3	2	0.264792	1473263.606201	1473263.597168	1473542.498291	1473542.497070	00006	m	1970-01	49.591553	0
195	2	0.584731	1476061.366211	1476061.364014	1476662.487061	1476662.485107	3	1	0.320771	1477663.614014	1477663.605957	1477998.542236	1477998.540039	00006	m	1970-01	49.591553	0
196	2	0.966649	1480511.508057	1480511.506104	1481494.470215	1481494.468018	3	2	0.311389	1482496.051270	1482496.042969	1482822.577148	1482822.575195	00006	m	1970-01	49.591553	1
197	2	0.430048	1485328.128174	1485328.125977	1485774.599121	1485774.598145	3	2	0.380036	1486775.659180	1486775.652100	1487174.608154	1487174.607178	00006	m	1970-01	49.591553	0
198	1	0.591925	1489678.200928	1489678.199219	1490286.557129	1490286.555176	2	2	0.295912	1491287.674072	1491287.666992	1491590.567139	1491590.565918	00006	m	1970-01	49.591553	1
199	1	0.303193	1494094.946045	1494094.944092	1494414.559082	1494414.557129	2	2	0.210583	1495415.745117	1495415.737061	1495638.616211	1495638.615234	00006	m	1970-01	49.591553	1
200	1	0.405219	1498144.979004	1498144.977051	1498566.633057	1498566.631104	2	2	0.516492	1499567.843994	1499567.836182	1500094.595947	1500094.594971	00006	m	1970-01	49.591553	1